subject,version,character_1,act_1,event_1,image_1,position_1,character_2,act_2,event_2,image_2,position_2,coherence,lag,plot,response,correct_distance,rt,stimulus,condition,trial_index,error,abs_error
301,6,Charles,1,E,3,67,Charles,2,A,4,76,mainplot,mainplot,NA,118,8,7400.5,"[""<img src=\""jspsych/stimuli/charles1E3.png\"" width=\""480\"" height=\""270\""> &nbsp <img src=\""jspsych/stimuli/charles2A4.png\"" width=\""480\"" height=\""270\"">""]",adjacent,25,110,110
301,6,Charles,1,B,2,18,Charles,1,B,5,21,mainplot,mainplot,NA,114,2,5674.9,"[""<img src=\""jspsych/stimuli/charles1B2.png\"" width=\""480\"" height=\""270\""> &nbsp <img src=\""jspsych/stimuli/charles1B5.png\"" width=\""480\"" height=\""270\"">""]",within,26,112,112
301,6,Sandra,1,A,2,58,Sandra,2,B,5,101,unrelated,short,NA,101,42,7674.4,"[""<img src=\""jspsych/stimuli/sandra1A2.png\"" width=\""480\"" height=\""270\""> &nbsp <img src=\""jspsych/stimuli/sandra2B5.png\"" width=\""480\"" height=\""270\"">""]",across,27,59,59
301,6,Johnny,1,A,7,31,Johnny,2,A,7,135,coherent,long,NA,90,103,9193.8,"[""<img src=\""jspsych/stimuli/johnny1A7.png\"" width=\""480\"" height=\""270\""> &nbsp <img src=\""jspsych/stimuli/johnny2A7.png\"" width=\""480\"" height=\""270\"">""]",across,28,-13,13
301,6,Sandra,1,A,8,64,Sandra,2,B,3,99,unrelated,short,NA,87,34,9309,"[""<img src=\""jspsych/stimuli/sandra1A8.png\"" width=\""480\"" height=\""270\""> &nbsp <img src=\""jspsych/stimuli/sandra2B3.png\"" width=\""480\"" height=\""270\"">""]",across,29,53,53
301,6,Charles,1,B,3,19,Charles,1,D,1,49,mainplot,mainplot,NA,85,29,8852.2,"[""<img src=\""jspsych/stimuli/charles1B3.png\"" width=\""480\"" height=\""270\""> &nbsp <img src=\""jspsych/stimuli/charles1D1.png\"" width=\""480\"" height=\""270\"">""]",random,30,56,56
301,6,Charles,1,A,6,6,Charles,2,C,6,110,mainplot,long,NA,130,103,4299.2,"[""<img src=\""jspsych/stimuli/charles1A6.png\"" width=\""480\"" height=\""270\""> &nbsp <img src=\""jspsych/stimuli/charles2C6.png\"" width=\""480\"" height=\""270\"">""]",across,31,27,27
301,6,Melvin,1,A,3,11,Charles,1,B,3,19,unrelated,long,NA,29,7,7418.5,"[""<img src=\""jspsych/stimuli/melvin1A3.png\"" width=\""480\"" height=\""270\""> &nbsp <img src=\""jspsych/stimuli/charles1B3.png\"" width=\""480\"" height=\""270\"">""]",adjacent,32,22,22
301,6,Charles,1,A,3,3,Charles,1,A,8,8,mainplot,mainplot,NA,55,4,6610.7,"[""<img src=\""jspsych/stimuli/charles1A3.png\"" width=\""480\"" height=\""270\""> &nbsp <img src=\""jspsych/stimuli/charles1A8.png\"" width=\""480\"" height=\""270\"">""]",within,33,51,51
301,6,Charles,1,A,2,2,Charles,2,E,5,141,mainplot,mainplot,NA,89,138,6898,"[""<img src=\""jspsych/stimuli/charles1A2.png\"" width=\""480\"" height=\""270\""> &nbsp <img src=\""jspsych/stimuli/charles2E5.png\"" width=\""480\"" height=\""270\"">""]",random,34,-49,49
301,6,Charles,2,D,1,121,Johnny,2,A,1,129,coherent,long,NA,61,7,7698.5,"[""<img src=\""jspsych/stimuli/charles2D1.png\"" width=\""480\"" height=\""270\""> &nbsp <img src=\""jspsych/stimuli/johnny2A1.png\"" width=\""480\"" height=\""270\"">""]",adjacent,35,54,54
301,6,Charles,2,B,3,91,Charles,2,C,1,105,mainplot,mainplot,NA,2,13,6130.4,"[""<img src=\""jspsych/stimuli/charles2B3.png\"" width=\""480\"" height=\""270\""> &nbsp <img src=\""jspsych/stimuli/charles2C1.png\"" width=\""480\"" height=\""270\"">""]",random,36,-11,11
301,6,Melvin,2,B,3,115,Melvin,2,B,8,120,unrelated,long,NA,1,4,5985.5,"[""<img src=\""jspsych/stimuli/melvin2B3.png\"" width=\""480\"" height=\""270\""> &nbsp <img src=\""jspsych/stimuli/melvin2B8.png\"" width=\""480\"" height=\""270\"">""]",within,37,-3,3
301,6,Sandra,1,A,5,61,Sandra,2,B,3,99,unrelated,short,NA,40,37,8331.4,"[""<img src=\""jspsych/stimuli/sandra1A5.png\"" width=\""480\"" height=\""270\""> &nbsp <img src=\""jspsych/stimuli/sandra2B3.png\"" width=\""480\"" height=\""270\"">""]",across,38,3,3
301,6,Melvin,1,A,1,9,Melvin,2,B,1,113,unrelated,long,NA,4,103,4727.9,"[""<img src=\""jspsych/stimuli/melvin1A1.png\"" width=\""480\"" height=\""270\""> &nbsp <img src=\""jspsych/stimuli/melvin2B1.png\"" width=\""480\"" height=\""270\"">""]",across,41,-99,99
301,6,Charles,1,C,3,35,Charles,1,D,8,56,mainplot,mainplot,NA,0,20,4028.5,"[""<img src=\""jspsych/stimuli/charles1C3.png\"" width=\""480\"" height=\""270\""> &nbsp <img src=\""jspsych/stimuli/charles1D8.png\"" width=\""480\"" height=\""270\"">""]",random,42,-20,20
301,6,Beatrice,2,A,8,88,Charles,2,B,8,96,coherent,short,NA,94,7,6115.7,"[""<img src=\""jspsych/stimuli/beatrice2A8.png\"" width=\""480\"" height=\""270\""> &nbsp <img src=\""jspsych/stimuli/charles2B8.png\"" width=\""480\"" height=\""270\"">""]",adjacent,43,87,87
301,6,Johnny,1,A,6,30,Charles,1,C,6,38,coherent,long,NA,36,7,5210,"[""<img src=\""jspsych/stimuli/johnny1A6.png\"" width=\""480\"" height=\""270\""> &nbsp <img src=\""jspsych/stimuli/charles1C6.png\"" width=\""480\"" height=\""270\"">""]",adjacent,44,29,29
301,6,Melvin,1,A,7,15,Melvin,2,B,5,117,unrelated,long,NA,34,101,6667,"[""<img src=\""jspsych/stimuli/melvin1A7.png\"" width=\""480\"" height=\""270\""> &nbsp <img src=\""jspsych/stimuli/melvin2B5.png\"" width=\""480\"" height=\""270\"">""]",across,45,-67,67
301,6,Charles,1,D,2,50,Charles,2,B,2,90,mainplot,short,NA,89,39,4808.2,"[""<img src=\""jspsych/stimuli/charles1D2.png\"" width=\""480\"" height=\""270\""> &nbsp <img src=\""jspsych/stimuli/charles2B2.png\"" width=\""480\"" height=\""270\"">""]",across,46,50,50
301,6,Charles,2,A,8,80,Beatrice,2,A,8,88,coherent,short,NA,39,7,4515.1,"[""<img src=\""jspsych/stimuli/charles2A8.png\"" width=\""480\"" height=\""270\""> &nbsp <img src=\""jspsych/stimuli/beatrice2A8.png\"" width=\""480\"" height=\""270\"">""]",adjacent,47,32,32
301,6,Johnny,2,A,1,129,Charles,2,E,1,137,coherent,long,NA,93,7,4707.5,"[""<img src=\""jspsych/stimuli/johnny2A1.png\"" width=\""480\"" height=\""270\""> &nbsp <img src=\""jspsych/stimuli/charles2E1.png\"" width=\""480\"" height=\""270\"">""]",adjacent,48,86,86
301,6,Melvin,1,A,5,13,Melvin,2,B,2,114,unrelated,long,NA,77,100,7123.6,"[""<img src=\""jspsych/stimuli/melvin1A5.png\"" width=\""480\"" height=\""270\""> &nbsp <img src=\""jspsych/stimuli/melvin2B2.png\"" width=\""480\"" height=\""270\"">""]",across,49,-23,23
301,6,Beatrice,1,A,4,44,Beatrice,2,A,6,86,coherent,short,NA,86,41,7707.1,"[""<img src=\""jspsych/stimuli/beatrice1A4.png\"" width=\""480\"" height=\""270\""> &nbsp <img src=\""jspsych/stimuli/beatrice2A6.png\"" width=\""480\"" height=\""270\"">""]",across,50,45,45
301,6,Beatrice,1,A,2,42,Beatrice,2,A,5,85,coherent,short,NA,99,42,4906.8,"[""<img src=\""jspsych/stimuli/beatrice1A2.png\"" width=\""480\"" height=\""270\""> &nbsp <img src=\""jspsych/stimuli/beatrice2A5.png\"" width=\""480\"" height=\""270\"">""]",across,51,57,57
301,6,Charles,1,E,5,69,Charles,2,A,6,78,mainplot,mainplot,NA,101,8,4554.7,"[""<img src=\""jspsych/stimuli/charles1E5.png\"" width=\""480\"" height=\""270\""> &nbsp <img src=\""jspsych/stimuli/charles2A6.png\"" width=\""480\"" height=\""270\"">""]",adjacent,52,93,93
301,6,Johnny,1,A,4,28,Johnny,2,A,4,132,coherent,long,NA,90,103,6298.7,"[""<img src=\""jspsych/stimuli/johnny1A4.png\"" width=\""480\"" height=\""270\""> &nbsp <img src=\""jspsych/stimuli/johnny2A4.png\"" width=\""480\"" height=\""270\"">""]",across,53,-13,13
301,6,Sandra,1,A,7,63,Sandra,2,B,2,98,unrelated,short,NA,74,34,4955.1,"[""<img src=\""jspsych/stimuli/sandra1A7.png\"" width=\""480\"" height=\""270\""> &nbsp <img src=\""jspsych/stimuli/sandra2B2.png\"" width=\""480\"" height=\""270\"">""]",across,54,40,40
301,6,Charles,1,C,1,33,Charles,2,D,1,121,mainplot,mainplot,NA,112,87,5298.7,"[""<img src=\""jspsych/stimuli/charles1C1.png\"" width=\""480\"" height=\""270\""> &nbsp <img src=\""jspsych/stimuli/charles2D1.png\"" width=\""480\"" height=\""270\"">""]",random,55,25,25
301,6,Charles,1,C,8,40,Beatrice,1,A,8,48,coherent,short,NA,19,7,5306.3,"[""<img src=\""jspsych/stimuli/charles1C8.png\"" width=\""480\"" height=\""270\""> &nbsp <img src=\""jspsych/stimuli/beatrice1A8.png\"" width=\""480\"" height=\""270\"">""]",adjacent,56,12,12
301,6,Charles,1,D,5,53,Charles,2,D,8,128,mainplot,mainplot,NA,119,74,5193.5,"[""<img src=\""jspsych/stimuli/charles1D5.png\"" width=\""480\"" height=\""270\""> &nbsp <img src=\""jspsych/stimuli/charles2D8.png\"" width=\""480\"" height=\""270\"">""]",random,57,45,45
301,6,Charles,1,C,4,36,Charles,1,D,4,52,mainplot,mainplot,NA,6,15,3372.5,"[""<img src=\""jspsych/stimuli/charles1C4.png\"" width=\""480\"" height=\""270\""> &nbsp <img src=\""jspsych/stimuli/charles1D4.png\"" width=\""480\"" height=\""270\"">""]",random,58,-9,9
301,6,Johnny,1,A,5,29,Johnny,2,A,7,135,coherent,long,NA,6,105,7155.9,"[""<img src=\""jspsych/stimuli/johnny1A5.png\"" width=\""480\"" height=\""270\""> &nbsp <img src=\""jspsych/stimuli/johnny2A7.png\"" width=\""480\"" height=\""270\"">""]",across,59,-99,99
301,6,Charles,1,C,5,37,Charles,2,A,5,77,mainplot,short,NA,97,39,3651.6,"[""<img src=\""jspsych/stimuli/charles1C5.png\"" width=\""480\"" height=\""270\""> &nbsp <img src=\""jspsych/stimuli/charles2A5.png\"" width=\""480\"" height=\""270\"">""]",across,60,58,58
301,6,Johnny,2,A,1,129,Johnny,2,A,6,134,coherent,long,NA,7,4,4859.8,"[""<img src=\""jspsych/stimuli/johnny2A1.png\"" width=\""480\"" height=\""270\""> &nbsp <img src=\""jspsych/stimuli/johnny2A6.png\"" width=\""480\"" height=\""270\"">""]",within,61,3,3
301,6,Johnny,1,A,2,26,Johnny,2,A,2,130,coherent,long,NA,5,103,8939.6,"[""<img src=\""jspsych/stimuli/johnny1A2.png\"" width=\""480\"" height=\""270\""> &nbsp <img src=\""jspsych/stimuli/johnny2A2.png\"" width=\""480\"" height=\""270\"">""]",across,62,-98,98
301,6,Melvin,1,A,2,10,Melvin,2,B,7,119,unrelated,long,NA,25,108,6898.5,"[""<img src=\""jspsych/stimuli/melvin1A2.png\"" width=\""480\"" height=\""270\""> &nbsp <img src=\""jspsych/stimuli/melvin2B7.png\"" width=\""480\"" height=\""270\"">""]",across,63,-83,83
301,6,Johnny,2,A,6,134,Charles,2,E,6,142,coherent,long,NA,80,7,5042.9,"[""<img src=\""jspsych/stimuli/johnny2A6.png\"" width=\""480\"" height=\""270\""> &nbsp <img src=\""jspsych/stimuli/charles2E6.png\"" width=\""480\"" height=\""270\"">""]",adjacent,64,73,73
301,6,Charles,1,B,8,24,Charles,2,B,8,96,mainplot,mainplot,NA,63,71,8867.8,"[""<img src=\""jspsych/stimuli/charles1B8.png\"" width=\""480\"" height=\""270\""> &nbsp <img src=\""jspsych/stimuli/charles2B8.png\"" width=\""480\"" height=\""270\"">""]",random,65,-8,8
301,6,Melvin,1,A,1,9,Melvin,2,B,6,118,unrelated,long,NA,15,108,5674.9,"[""<img src=\""jspsych/stimuli/melvin1A1.png\"" width=\""480\"" height=\""270\""> &nbsp <img src=\""jspsych/stimuli/melvin2B6.png\"" width=\""480\"" height=\""270\"">""]",across,66,-93,93
301,6,Charles,1,A,3,3,Melvin,1,A,3,11,unrelated,long,NA,32,7,4779.9,"[""<img src=\""jspsych/stimuli/charles1A3.png\"" width=\""480\"" height=\""270\""> &nbsp <img src=\""jspsych/stimuli/melvin1A3.png\"" width=\""480\"" height=\""270\"">""]",adjacent,67,25,25
301,6,Charles,2,B,4,92,Charles,2,B,6,94,mainplot,mainplot,NA,3,1,4107.9,"[""<img src=\""jspsych/stimuli/charles2B4.png\"" width=\""480\"" height=\""270\""> &nbsp <img src=\""jspsych/stimuli/charles2B6.png\"" width=\""480\"" height=\""270\"">""]",within,68,2,2
301,6,Charles,2,D,3,123,Charles,2,D,6,126,mainplot,mainplot,NA,3,2,8451.8,"[""<img src=\""jspsych/stimuli/charles2D3.png\"" width=\""480\"" height=\""270\""> &nbsp <img src=\""jspsych/stimuli/charles2D6.png\"" width=\""480\"" height=\""270\"">""]",within,69,1,1
301,6,Melvin,1,A,4,12,Melvin,2,B,1,113,unrelated,long,NA,51,100,8804.6,"[""<img src=\""jspsych/stimuli/melvin1A4.png\"" width=\""480\"" height=\""270\""> &nbsp <img src=\""jspsych/stimuli/melvin2B1.png\"" width=\""480\"" height=\""270\"">""]",across,70,-49,49
301,6,Sandra,1,A,6,62,Charles,1,E,6,70,unrelated,short,NA,88,7,4155.5,"[""<img src=\""jspsych/stimuli/sandra1A6.png\"" width=\""480\"" height=\""270\""> &nbsp <img src=\""jspsych/stimuli/charles1E6.png\"" width=\""480\"" height=\""270\"">""]",adjacent,71,81,81
301,6,Melvin,1,A,8,16,Charles,1,B,8,24,unrelated,long,NA,31,7,8331.5,"[""<img src=\""jspsych/stimuli/melvin1A8.png\"" width=\""480\"" height=\""270\""> &nbsp <img src=\""jspsych/stimuli/charles1B8.png\"" width=\""480\"" height=\""270\"">""]",adjacent,72,24,24
301,6,Charles,1,B,2,18,Charles,2,D,2,122,mainplot,long,NA,91,103,9835.6,"[""<img src=\""jspsych/stimuli/charles1B2.png\"" width=\""480\"" height=\""270\""> &nbsp <img src=\""jspsych/stimuli/charles2D2.png\"" width=\""480\"" height=\""270\"">""]",across,73,-12,12
301,6,Beatrice,1,A,4,44,Beatrice,2,A,1,81,coherent,short,NA,82,36,7390.4,"[""<img src=\""jspsych/stimuli/beatrice1A4.png\"" width=\""480\"" height=\""270\""> &nbsp <img src=\""jspsych/stimuli/beatrice2A1.png\"" width=\""480\"" height=\""270\"">""]",across,74,46,46
301,6,Sandra,1,A,3,59,Sandra,2,B,7,103,unrelated,short,NA,87,43,3459,"[""<img src=\""jspsych/stimuli/sandra1A3.png\"" width=\""480\"" height=\""270\""> &nbsp <img src=\""jspsych/stimuli/sandra2B7.png\"" width=\""480\"" height=\""270\"">""]",across,75,44,44
301,6,Charles,2,D,6,126,Johnny,2,A,6,134,coherent,long,NA,101,7,4041.9,"[""<img src=\""jspsych/stimuli/charles2D6.png\"" width=\""480\"" height=\""270\""> &nbsp <img src=\""jspsych/stimuli/johnny2A6.png\"" width=\""480\"" height=\""270\"">""]",adjacent,76,94,94
301,6,Beatrice,1,A,6,46,Beatrice,2,A,4,84,coherent,short,NA,87,37,4685.5,"[""<img src=\""jspsych/stimuli/beatrice1A6.png\"" width=\""480\"" height=\""270\""> &nbsp <img src=\""jspsych/stimuli/beatrice2A4.png\"" width=\""480\"" height=\""270\"">""]",across,77,50,50
301,6,Sandra,1,A,4,60,Sandra,2,B,8,104,unrelated,short,NA,89,43,5764.8,"[""<img src=\""jspsych/stimuli/sandra1A4.png\"" width=\""480\"" height=\""270\""> &nbsp <img src=\""jspsych/stimuli/sandra2B8.png\"" width=\""480\"" height=\""270\"">""]",across,78,46,46
301,6,Johnny,1,A,1,25,Johnny,1,A,6,30,coherent,long,NA,4,4,5667.9,"[""<img src=\""jspsych/stimuli/johnny1A1.png\"" width=\""480\"" height=\""270\""> &nbsp <img src=\""jspsych/stimuli/johnny1A6.png\"" width=\""480\"" height=\""270\"">""]",within,79,0,0
301,6,Melvin,1,A,5,13,Melvin,2,B,7,119,unrelated,long,NA,85,105,3297.9,"[""<img src=\""jspsych/stimuli/melvin1A5.png\"" width=\""480\"" height=\""270\""> &nbsp <img src=\""jspsych/stimuli/melvin2B7.png\"" width=\""480\"" height=\""270\"">""]",across,81,-20,20
301,6,Charles,1,C,2,34,Charles,2,E,2,138,mainplot,long,NA,95,103,3940.1,"[""<img src=\""jspsych/stimuli/charles1C2.png\"" width=\""480\"" height=\""270\""> &nbsp <img src=\""jspsych/stimuli/charles2E2.png\"" width=\""480\"" height=\""270\"">""]",across,82,-8,8
301,6,Charles,1,E,4,68,Charles,2,C,4,108,mainplot,short,NA,78,39,5491.5,"[""<img src=\""jspsych/stimuli/charles1E4.png\"" width=\""480\"" height=\""270\""> &nbsp <img src=\""jspsych/stimuli/charles2C4.png\"" width=\""480\"" height=\""270\"">""]",across,83,39,39
301,6,Charles,1,B,6,22,Charles,1,B,7,23,mainplot,mainplot,NA,9,0,7777.5,"[""<img src=\""jspsych/stimuli/charles1B6.png\"" width=\""480\"" height=\""270\""> &nbsp <img src=\""jspsych/stimuli/charles1B7.png\"" width=\""480\"" height=\""270\"">""]",within,84,9,9
301,6,Beatrice,1,A,4,44,Beatrice,2,A,4,84,coherent,short,NA,86,39,4714.9,"[""<img src=\""jspsych/stimuli/beatrice1A4.png\"" width=\""480\"" height=\""270\""> &nbsp <img src=\""jspsych/stimuli/beatrice2A4.png\"" width=\""480\"" height=\""270\"">""]",across,85,47,47
301,6,Sandra,1,A,1,57,Charles,1,E,1,65,unrelated,short,NA,86,7,7962.5,"[""<img src=\""jspsych/stimuli/sandra1A1.png\"" width=\""480\"" height=\""270\""> &nbsp <img src=\""jspsych/stimuli/charles1E1.png\"" width=\""480\"" height=\""270\"">""]",adjacent,86,79,79
301,6,Johnny,1,A,7,31,Johnny,2,A,5,133,coherent,long,NA,90,101,6547.3,"[""<img src=\""jspsych/stimuli/johnny1A7.png\"" width=\""480\"" height=\""270\""> &nbsp <img src=\""jspsych/stimuli/johnny2A5.png\"" width=\""480\"" height=\""270\"">""]",across,87,-11,11
301,6,Charles,1,C,7,39,Charles,2,E,7,143,mainplot,long,NA,77,103,6347.5,"[""<img src=\""jspsych/stimuli/charles1C7.png\"" width=\""480\"" height=\""270\""> &nbsp <img src=\""jspsych/stimuli/charles2E7.png\"" width=\""480\"" height=\""270\"">""]",across,88,-26,26
301,6,Beatrice,1,A,5,45,Beatrice,2,A,2,82,coherent,short,NA,87,36,5372.1,"[""<img src=\""jspsych/stimuli/beatrice1A5.png\"" width=\""480\"" height=\""270\""> &nbsp <img src=\""jspsych/stimuli/beatrice2A2.png\"" width=\""480\"" height=\""270\"">""]",across,89,51,51
301,6,Sandra,1,A,8,64,Sandra,2,B,8,104,unrelated,short,NA,87,39,2994.8,"[""<img src=\""jspsych/stimuli/sandra1A8.png\"" width=\""480\"" height=\""270\""> &nbsp <img src=\""jspsych/stimuli/sandra2B8.png\"" width=\""480\"" height=\""270\"">""]",across,90,48,48
301,6,Charles,1,E,8,72,Charles,2,A,8,80,mainplot,mainplot,NA,25,7,8795.2,"[""<img src=\""jspsych/stimuli/charles1E8.png\"" width=\""480\"" height=\""270\""> &nbsp <img src=\""jspsych/stimuli/charles2A8.png\"" width=\""480\"" height=\""270\"">""]",adjacent,91,18,18
301,6,Sandra,2,B,6,102,Charles,2,C,6,110,unrelated,short,NA,41,7,7163.1,"[""<img src=\""jspsych/stimuli/sandra2B6.png\"" width=\""480\"" height=\""270\""> &nbsp <img src=\""jspsych/stimuli/charles2C6.png\"" width=\""480\"" height=\""270\"">""]",adjacent,92,34,34
301,6,Charles,1,E,4,68,Charles,2,A,5,77,mainplot,mainplot,NA,32,8,6809.2,"[""<img src=\""jspsych/stimuli/charles1E4.png\"" width=\""480\"" height=\""270\""> &nbsp <img src=\""jspsych/stimuli/charles2A5.png\"" width=\""480\"" height=\""270\"">""]",adjacent,93,24,24
301,6,Beatrice,1,A,3,43,Charles,1,D,3,51,coherent,short,NA,63,7,6330.5,"[""<img src=\""jspsych/stimuli/beatrice1A3.png\"" width=\""480\"" height=\""270\""> &nbsp <img src=\""jspsych/stimuli/charles1D3.png\"" width=\""480\"" height=\""270\"">""]",adjacent,94,56,56
301,6,Charles,2,B,7,95,Charles,2,C,7,111,mainplot,mainplot,NA,4,15,3611.5,"[""<img src=\""jspsych/stimuli/charles2B7.png\"" width=\""480\"" height=\""270\""> &nbsp <img src=\""jspsych/stimuli/charles2C7.png\"" width=\""480\"" height=\""270\"">""]",random,95,-11,11
301,6,Charles,1,D,2,50,Charles,2,A,1,73,mainplot,mainplot,NA,47,22,6502.7,"[""<img src=\""jspsych/stimuli/charles1D2.png\"" width=\""480\"" height=\""270\""> &nbsp <img src=\""jspsych/stimuli/charles2A1.png\"" width=\""480\"" height=\""270\"">""]",random,97,25,25
301,6,Sandra,2,B,1,97,Charles,2,C,1,105,unrelated,short,NA,81,7,4859.2,"[""<img src=\""jspsych/stimuli/sandra2B1.png\"" width=\""480\"" height=\""270\""> &nbsp <img src=\""jspsych/stimuli/charles2C1.png\"" width=\""480\"" height=\""270\"">""]",adjacent,98,74,74
301,6,Charles,1,E,8,72,Charles,2,C,8,112,mainplot,short,NA,50,39,6635,"[""<img src=\""jspsych/stimuli/charles1E8.png\"" width=\""480\"" height=\""270\""> &nbsp <img src=\""jspsych/stimuli/charles2C8.png\"" width=\""480\"" height=\""270\"">""]",across,99,11,11
301,6,Charles,1,B,5,21,Charles,2,D,5,125,mainplot,long,NA,121,103,5818.8,"[""<img src=\""jspsych/stimuli/charles1B5.png\"" width=\""480\"" height=\""270\""> &nbsp <img src=\""jspsych/stimuli/charles2D5.png\"" width=\""480\"" height=\""270\"">""]",across,100,18,18
301,6,Melvin,1,A,6,14,Melvin,2,B,6,118,unrelated,long,NA,46,103,5522.3,"[""<img src=\""jspsych/stimuli/melvin1A6.png\"" width=\""480\"" height=\""270\""> &nbsp <img src=\""jspsych/stimuli/melvin2B6.png\"" width=\""480\"" height=\""270\"">""]",across,101,-57,57
301,6,Beatrice,1,A,7,47,Beatrice,2,A,5,85,coherent,short,NA,51,37,5283,"[""<img src=\""jspsych/stimuli/beatrice1A7.png\"" width=\""480\"" height=\""270\""> &nbsp <img src=\""jspsych/stimuli/beatrice2A5.png\"" width=\""480\"" height=\""270\"">""]",across,102,14,14
301,6,Sandra,1,A,8,64,Sandra,2,B,4,100,unrelated,short,NA,85,35,5889.8,"[""<img src=\""jspsych/stimuli/sandra1A8.png\"" width=\""480\"" height=\""270\""> &nbsp <img src=\""jspsych/stimuli/sandra2B4.png\"" width=\""480\"" height=\""270\"">""]",across,103,50,50
301,6,Beatrice,1,A,5,45,Beatrice,2,A,7,87,coherent,short,NA,97,41,7946.7,"[""<img src=\""jspsych/stimuli/beatrice1A5.png\"" width=\""480\"" height=\""270\""> &nbsp <img src=\""jspsych/stimuli/beatrice2A7.png\"" width=\""480\"" height=\""270\"">""]",across,104,56,56
301,6,Johnny,1,A,3,27,Johnny,2,A,4,132,coherent,long,NA,91,104,4129.4,"[""<img src=\""jspsych/stimuli/johnny1A3.png\"" width=\""480\"" height=\""270\""> &nbsp <img src=\""jspsych/stimuli/johnny2A4.png\"" width=\""480\"" height=\""270\"">""]",across,105,-13,13
301,6,Beatrice,1,A,2,42,Beatrice,2,A,7,87,coherent,short,NA,90,44,4130.3,"[""<img src=\""jspsych/stimuli/beatrice1A2.png\"" width=\""480\"" height=\""270\""> &nbsp <img src=\""jspsych/stimuli/beatrice2A7.png\"" width=\""480\"" height=\""270\"">""]",across,106,46,46
301,6,Charles,1,B,4,20,Charles,1,D,5,53,mainplot,mainplot,NA,12,32,7827.5,"[""<img src=\""jspsych/stimuli/charles1B4.png\"" width=\""480\"" height=\""270\""> &nbsp <img src=\""jspsych/stimuli/charles1D5.png\"" width=\""480\"" height=\""270\"">""]",random,107,-20,20
301,6,Charles,1,E,2,66,Charles,2,C,2,106,mainplot,short,NA,75,39,8859.8,"[""<img src=\""jspsych/stimuli/charles1E2.png\"" width=\""480\"" height=\""270\""> &nbsp <img src=\""jspsych/stimuli/charles2C2.png\"" width=\""480\"" height=\""270\"">""]",across,108,36,36
301,6,Charles,2,C,3,107,Charles,2,C,5,109,mainplot,mainplot,NA,1,1,6581.5,"[""<img src=\""jspsych/stimuli/charles2C3.png\"" width=\""480\"" height=\""270\""> &nbsp <img src=\""jspsych/stimuli/charles2C5.png\"" width=\""480\"" height=\""270\"">""]",within,109,0,0
301,6,Johnny,1,A,5,29,Johnny,2,A,3,131,coherent,long,NA,7,101,8676.4,"[""<img src=\""jspsych/stimuli/johnny1A5.png\"" width=\""480\"" height=\""270\""> &nbsp <img src=\""jspsych/stimuli/johnny2A3.png\"" width=\""480\"" height=\""270\"">""]",across,110,-94,94
301,6,Johnny,1,A,7,31,Johnny,2,A,2,130,coherent,long,NA,59,98,7799.4,"[""<img src=\""jspsych/stimuli/johnny1A7.png\"" width=\""480\"" height=\""270\""> &nbsp <img src=\""jspsych/stimuli/johnny2A2.png\"" width=\""480\"" height=\""270\"">""]",across,111,-39,39
301,6,Beatrice,1,A,2,42,Beatrice,2,A,2,82,coherent,short,NA,83,39,4059,"[""<img src=\""jspsych/stimuli/beatrice1A2.png\"" width=\""480\"" height=\""270\""> &nbsp <img src=\""jspsych/stimuli/beatrice2A2.png\"" width=\""480\"" height=\""270\"">""]",across,112,44,44
301,6,Sandra,1,A,3,59,Sandra,2,B,4,100,unrelated,short,NA,92,40,6418.8,"[""<img src=\""jspsych/stimuli/sandra1A3.png\"" width=\""480\"" height=\""270\""> &nbsp <img src=\""jspsych/stimuli/sandra2B4.png\"" width=\""480\"" height=\""270\"">""]",across,113,52,52
301,6,Johnny,1,A,3,27,Johnny,2,A,7,135,coherent,long,NA,92,107,5186.9,"[""<img src=\""jspsych/stimuli/johnny1A3.png\"" width=\""480\"" height=\""270\""> &nbsp <img src=\""jspsych/stimuli/johnny2A7.png\"" width=\""480\"" height=\""270\"">""]",across,114,-15,15
301,6,Charles,1,B,7,23,Charles,2,D,7,127,mainplot,long,NA,107,103,5234.1,"[""<img src=\""jspsych/stimuli/charles1B7.png\"" width=\""480\"" height=\""270\""> &nbsp <img src=\""jspsych/stimuli/charles2D7.png\"" width=\""480\"" height=\""270\"">""]",across,115,4,4
301,6,Charles,1,C,6,38,Charles,2,D,7,127,mainplot,mainplot,NA,132,88,5540.7,"[""<img src=\""jspsych/stimuli/charles1C6.png\"" width=\""480\"" height=\""270\""> &nbsp <img src=\""jspsych/stimuli/charles2D7.png\"" width=\""480\"" height=\""270\"">""]",random,116,44,44
301,6,Melvin,1,A,3,11,Melvin,1,A,8,16,unrelated,long,NA,3,4,6092.3,"[""<img src=\""jspsych/stimuli/melvin1A3.png\"" width=\""480\"" height=\""270\""> &nbsp <img src=\""jspsych/stimuli/melvin1A8.png\"" width=\""480\"" height=\""270\"">""]",within,117,-1,1
301,6,Charles,1,D,3,51,Charles,1,D,7,55,mainplot,mainplot,NA,6,3,8059.5,"[""<img src=\""jspsych/stimuli/charles1D3.png\"" width=\""480\"" height=\""270\""> &nbsp <img src=\""jspsych/stimuli/charles1D7.png\"" width=\""480\"" height=\""270\"">""]",within,118,3,3
301,6,Sandra,2,B,1,97,Sandra,2,B,6,102,unrelated,short,NA,5,4,4555.7,"[""<img src=\""jspsych/stimuli/sandra2B1.png\"" width=\""480\"" height=\""270\""> &nbsp <img src=\""jspsych/stimuli/sandra2B6.png\"" width=\""480\"" height=\""270\"">""]",within,119,1,1
301,6,Sandra,1,A,5,61,Sandra,2,B,5,101,unrelated,short,NA,86,39,3820.1,"[""<img src=\""jspsych/stimuli/sandra1A5.png\"" width=\""480\"" height=\""270\""> &nbsp <img src=\""jspsych/stimuli/sandra2B5.png\"" width=\""480\"" height=\""270\"">""]",across,120,47,47
301,6,Charles,1,E,6,70,Charles,2,A,7,79,mainplot,mainplot,NA,13,8,9235.6,"[""<img src=\""jspsych/stimuli/charles1E6.png\"" width=\""480\"" height=\""270\""> &nbsp <img src=\""jspsych/stimuli/charles2A7.png\"" width=\""480\"" height=\""270\"">""]",adjacent,121,5,5
301,6,Melvin,1,A,4,12,Melvin,2,B,6,118,unrelated,long,NA,24,105,6107.1,"[""<img src=\""jspsych/stimuli/melvin1A4.png\"" width=\""480\"" height=\""270\""> &nbsp <img src=\""jspsych/stimuli/melvin2B6.png\"" width=\""480\"" height=\""270\"">""]",across,122,-81,81
301,6,Charles,1,E,1,65,Charles,2,A,1,73,mainplot,mainplot,NA,11,7,6515.2,"[""<img src=\""jspsych/stimuli/charles1E1.png\"" width=\""480\"" height=\""270\""> &nbsp <img src=\""jspsych/stimuli/charles2A1.png\"" width=\""480\"" height=\""270\"">""]",adjacent,123,4,4
301,6,Charles,1,A,7,7,Charles,1,B,1,17,mainplot,mainplot,NA,7,9,7882.7,"[""<img src=\""jspsych/stimuli/charles1A7.png\"" width=\""480\"" height=\""270\""> &nbsp <img src=\""jspsych/stimuli/charles1B1.png\"" width=\""480\"" height=\""270\"">""]",random,124,-2,2
301,6,Charles,1,C,3,35,Beatrice,1,A,3,43,coherent,short,NA,22,7,5106.3,"[""<img src=\""jspsych/stimuli/charles1C3.png\"" width=\""480\"" height=\""270\""> &nbsp <img src=\""jspsych/stimuli/beatrice1A3.png\"" width=\""480\"" height=\""270\"">""]",adjacent,125,15,15
301,6,Charles,1,D,4,52,Charles,2,B,4,92,mainplot,short,NA,65,39,5435.7,"[""<img src=\""jspsych/stimuli/charles1D4.png\"" width=\""480\"" height=\""270\""> &nbsp <img src=\""jspsych/stimuli/charles2B4.png\"" width=\""480\"" height=\""270\"">""]",across,126,26,26
301,6,Johnny,1,A,1,25,Charles,1,C,1,33,coherent,long,NA,62,7,9452.1,"[""<img src=\""jspsych/stimuli/johnny1A1.png\"" width=\""480\"" height=\""270\""> &nbsp <img src=\""jspsych/stimuli/charles1C1.png\"" width=\""480\"" height=\""270\"">""]",adjacent,127,55,55
301,6,Charles,1,A,8,8,Melvin,1,A,8,16,unrelated,long,NA,63,7,3864.1,"[""<img src=\""jspsych/stimuli/charles1A8.png\"" width=\""480\"" height=\""270\""> &nbsp <img src=\""jspsych/stimuli/melvin1A8.png\"" width=\""480\"" height=\""270\"">""]",adjacent,128,56,56
301,6,Melvin,1,A,2,10,Melvin,2,B,5,117,unrelated,long,NA,21,106,3259.5,"[""<img src=\""jspsych/stimuli/melvin1A2.png\"" width=\""480\"" height=\""270\""> &nbsp <img src=\""jspsych/stimuli/melvin2B5.png\"" width=\""480\"" height=\""270\"">""]",across,129,-85,85
301,6,Sandra,1,A,7,63,Sandra,2,B,5,101,unrelated,short,NA,86,37,5307.4,"[""<img src=\""jspsych/stimuli/sandra1A7.png\"" width=\""480\"" height=\""270\""> &nbsp <img src=\""jspsych/stimuli/sandra2B5.png\"" width=\""480\"" height=\""270\"">""]",across,130,49,49
301,6,Beatrice,1,A,6,46,Beatrice,2,A,1,81,coherent,short,NA,89,34,3547.2,"[""<img src=\""jspsych/stimuli/beatrice1A6.png\"" width=\""480\"" height=\""270\""> &nbsp <img src=\""jspsych/stimuli/beatrice2A1.png\"" width=\""480\"" height=\""270\"">""]",across,131,55,55
301,6,Charles,1,C,7,39,Charles,2,A,7,79,mainplot,short,NA,54,39,6947.2,"[""<img src=\""jspsych/stimuli/charles1C7.png\"" width=\""480\"" height=\""270\""> &nbsp <img src=\""jspsych/stimuli/charles2A7.png\"" width=\""480\"" height=\""270\"">""]",across,132,15,15
301,6,Melvin,1,A,6,14,Melvin,2,B,4,116,unrelated,long,NA,29,101,6692.1,"[""<img src=\""jspsych/stimuli/melvin1A6.png\"" width=\""480\"" height=\""270\""> &nbsp <img src=\""jspsych/stimuli/melvin2B4.png\"" width=\""480\"" height=\""270\"">""]",across,133,-72,72
301,6,Sandra,1,A,2,58,Sandra,2,B,2,98,unrelated,short,NA,87,39,4435.3,"[""<img src=\""jspsych/stimuli/sandra1A2.png\"" width=\""480\"" height=\""270\""> &nbsp <img src=\""jspsych/stimuli/sandra2B2.png\"" width=\""480\"" height=\""270\"">""]",across,134,48,48
301,6,Beatrice,2,A,3,83,Beatrice,2,A,8,88,coherent,short,NA,2,4,4762.8,"[""<img src=\""jspsych/stimuli/beatrice2A3.png\"" width=\""480\"" height=\""270\""> &nbsp <img src=\""jspsych/stimuli/beatrice2A8.png\"" width=\""480\"" height=\""270\"">""]",within,135,-2,2
301,6,Charles,1,D,7,55,Charles,2,B,7,95,mainplot,short,NA,39,39,2850.7,"[""<img src=\""jspsych/stimuli/charles1D7.png\"" width=\""480\"" height=\""270\""> &nbsp <img src=\""jspsych/stimuli/charles2B7.png\"" width=\""480\"" height=\""270\"">""]",across,136,0,0
301,6,Sandra,1,A,7,63,Sandra,2,B,7,103,unrelated,short,NA,82,39,2402.7,"[""<img src=\""jspsych/stimuli/sandra1A7.png\"" width=\""480\"" height=\""270\""> &nbsp <img src=\""jspsych/stimuli/sandra2B7.png\"" width=\""480\"" height=\""270\"">""]",across,137,43,43
301,6,Charles,2,B,6,94,Sandra,2,B,6,102,unrelated,short,NA,65,7,4803.4,"[""<img src=\""jspsych/stimuli/charles2B6.png\"" width=\""480\"" height=\""270\""> &nbsp <img src=\""jspsych/stimuli/sandra2B6.png\"" width=\""480\"" height=\""270\"">""]",adjacent,138,58,58
301,6,Johnny,1,A,5,29,Johnny,2,A,5,133,coherent,long,NA,80,103,4026.2,"[""<img src=\""jspsych/stimuli/johnny1A5.png\"" width=\""480\"" height=\""270\""> &nbsp <img src=\""jspsych/stimuli/johnny2A5.png\"" width=\""480\"" height=\""270\"">""]",across,139,-23,23
301,6,Beatrice,2,A,3,83,Charles,2,B,3,91,coherent,short,NA,57,7,2779.7,"[""<img src=\""jspsych/stimuli/beatrice2A3.png\"" width=\""480\"" height=\""270\""> &nbsp <img src=\""jspsych/stimuli/charles2B3.png\"" width=\""480\"" height=\""270\"">""]",adjacent,140,50,50
301,6,Beatrice,1,A,3,43,Beatrice,1,A,8,48,coherent,short,NA,1,4,5211.2,"[""<img src=\""jspsych/stimuli/beatrice1A3.png\"" width=\""480\"" height=\""270\""> &nbsp <img src=\""jspsych/stimuli/beatrice1A8.png\"" width=\""480\"" height=\""270\"">""]",within,141,-3,3
301,6,Charles,1,D,6,54,Charles,2,D,2,122,mainplot,mainplot,NA,92,67,4156,"[""<img src=\""jspsych/stimuli/charles1D6.png\"" width=\""480\"" height=\""270\""> &nbsp <img src=\""jspsych/stimuli/charles2D2.png\"" width=\""480\"" height=\""270\"">""]",random,142,25,25
301,6,Charles,1,A,2,2,Charles,2,C,2,106,mainplot,long,NA,34,103,6883.1,"[""<img src=\""jspsych/stimuli/charles1A2.png\"" width=\""480\"" height=\""270\""> &nbsp <img src=\""jspsych/stimuli/charles2C2.png\"" width=\""480\"" height=\""270\"">""]",across,143,-69,69
301,6,Charles,2,B,1,89,Sandra,2,B,1,97,unrelated,short,NA,9,7,4700.8,"[""<img src=\""jspsych/stimuli/charles2B1.png\"" width=\""480\"" height=\""270\""> &nbsp <img src=\""jspsych/stimuli/sandra2B1.png\"" width=\""480\"" height=\""270\"">""]",adjacent,144,2,2
301,6,Charles,1,E,2,66,Charles,2,A,3,75,mainplot,mainplot,NA,11,8,7171,"[""<img src=\""jspsych/stimuli/charles1E2.png\"" width=\""480\"" height=\""270\""> &nbsp <img src=\""jspsych/stimuli/charles2A3.png\"" width=\""480\"" height=\""270\"">""]",adjacent,145,3,3
301,6,Sandra,1,A,3,59,Sandra,2,B,3,99,unrelated,short,NA,86,39,9859.2,"[""<img src=\""jspsych/stimuli/sandra1A3.png\"" width=\""480\"" height=\""270\""> &nbsp <img src=\""jspsych/stimuli/sandra2B3.png\"" width=\""480\"" height=\""270\"">""]",across,146,47,47
301,6,Charles,1,B,1,17,Johnny,1,A,1,25,coherent,long,NA,79,7,7691.4,"[""<img src=\""jspsych/stimuli/charles1B1.png\"" width=\""480\"" height=\""270\""> &nbsp <img src=\""jspsych/stimuli/johnny1A1.png\"" width=\""480\"" height=\""270\"">""]",adjacent,147,72,72
301,6,Beatrice,1,A,8,48,Charles,1,D,8,56,coherent,short,NA,22,7,4610.8,"[""<img src=\""jspsych/stimuli/beatrice1A8.png\"" width=\""480\"" height=\""270\""> &nbsp <img src=\""jspsych/stimuli/charles1D8.png\"" width=\""480\"" height=\""270\"">""]",adjacent,148,15,15
301,6,Johnny,1,A,3,27,Johnny,2,A,3,131,coherent,long,NA,3,103,5345.6,"[""<img src=\""jspsych/stimuli/johnny1A3.png\"" width=\""480\"" height=\""270\""> &nbsp <img src=\""jspsych/stimuli/johnny2A3.png\"" width=\""480\"" height=\""270\"">""]",across,149,-100,100
301,6,Melvin,2,B,8,120,Charles,2,D,8,128,unrelated,long,NA,108,7,3476.3,"[""<img src=\""jspsych/stimuli/melvin2B8.png\"" width=\""480\"" height=\""270\""> &nbsp <img src=\""jspsych/stimuli/charles2D8.png\"" width=\""480\"" height=\""270\"">""]",adjacent,150,101,101
301,6,Charles,1,C,5,37,Charles,2,E,5,141,mainplot,long,NA,97,103,4684.6,"[""<img src=\""jspsych/stimuli/charles1C5.png\"" width=\""480\"" height=\""270\""> &nbsp <img src=\""jspsych/stimuli/charles2E5.png\"" width=\""480\"" height=\""270\"">""]",across,151,-6,6
301,6,Johnny,1,A,4,28,Johnny,2,A,8,136,coherent,long,NA,81,107,6948.7,"[""<img src=\""jspsych/stimuli/johnny1A4.png\"" width=\""480\"" height=\""270\""> &nbsp <img src=\""jspsych/stimuli/johnny2A8.png\"" width=\""480\"" height=\""270\"">""]",across,152,-26,26
301,6,Beatrice,1,A,6,46,Beatrice,2,A,6,86,coherent,short,NA,81,39,7651.9,"[""<img src=\""jspsych/stimuli/beatrice1A6.png\"" width=\""480\"" height=\""270\""> &nbsp <img src=\""jspsych/stimuli/beatrice2A6.png\"" width=\""480\"" height=\""270\"">""]",across,153,42,42
301,6,Melvin,1,A,5,13,Melvin,2,B,5,117,unrelated,long,NA,19,103,3370.5,"[""<img src=\""jspsych/stimuli/melvin1A5.png\"" width=\""480\"" height=\""270\""> &nbsp <img src=\""jspsych/stimuli/melvin2B5.png\"" width=\""480\"" height=\""270\"">""]",across,154,-84,84
301,6,Charles,1,A,4,4,Charles,2,C,4,108,mainplot,long,NA,94,103,4091.3,"[""<img src=\""jspsych/stimuli/charles1A4.png\"" width=\""480\"" height=\""270\""> &nbsp <img src=\""jspsych/stimuli/charles2C4.png\"" width=\""480\"" height=\""270\"">""]",across,155,-9,9
301,6,Johnny,1,A,2,26,Johnny,2,A,5,133,coherent,long,NA,87,106,5618.7,"[""<img src=\""jspsych/stimuli/johnny1A2.png\"" width=\""480\"" height=\""270\""> &nbsp <img src=\""jspsych/stimuli/johnny2A5.png\"" width=\""480\"" height=\""270\"">""]",across,156,-19,19
301,6,Beatrice,1,A,7,47,Beatrice,2,A,7,87,coherent,short,NA,79,39,2546,"[""<img src=\""jspsych/stimuli/beatrice1A7.png\"" width=\""480\"" height=\""270\""> &nbsp <img src=\""jspsych/stimuli/beatrice2A7.png\"" width=\""480\"" height=\""270\"">""]",across,157,40,40
301,6,Johnny,1,A,4,28,Johnny,2,A,2,130,coherent,long,NA,97,101,5026.7,"[""<img src=\""jspsych/stimuli/johnny1A4.png\"" width=\""480\"" height=\""270\""> &nbsp <img src=\""jspsych/stimuli/johnny2A2.png\"" width=\""480\"" height=\""270\"">""]",across,158,-4,4
301,6,Melvin,1,A,2,10,Melvin,2,B,2,114,unrelated,long,NA,31,103,5059.4,"[""<img src=\""jspsych/stimuli/melvin1A2.png\"" width=\""480\"" height=\""270\""> &nbsp <img src=\""jspsych/stimuli/melvin2B2.png\"" width=\""480\"" height=\""270\"">""]",across,159,-72,72
301,6,Charles,1,C,2,34,Charles,1,C,8,40,mainplot,mainplot,NA,1,5,6482,"[""<img src=\""jspsych/stimuli/charles1C2.png\"" width=\""480\"" height=\""270\""> &nbsp <img src=\""jspsych/stimuli/charles1C8.png\"" width=\""480\"" height=\""270\"">""]",within,160,-4,4
301,6,Charles,2,E,4,140,Charles,2,E,7,143,mainplot,mainplot,NA,2,2,4220.4,"[""<img src=\""jspsych/stimuli/charles2E4.png\"" width=\""480\"" height=\""270\""> &nbsp <img src=\""jspsych/stimuli/charles2E7.png\"" width=\""480\"" height=\""270\"">""]",within,161,0,0
301,6,Melvin,1,A,6,14,Melvin,2,B,1,113,unrelated,long,NA,3,98,4988.5,"[""<img src=\""jspsych/stimuli/melvin1A6.png\"" width=\""480\"" height=\""270\""> &nbsp <img src=\""jspsych/stimuli/melvin2B1.png\"" width=\""480\"" height=\""270\"">""]",across,162,-95,95
301,6,Charles,1,A,7,7,Charles,2,C,7,111,mainplot,long,NA,32,103,5829.4,"[""<img src=\""jspsych/stimuli/charles1A7.png\"" width=\""480\"" height=\""270\""> &nbsp <img src=\""jspsych/stimuli/charles2C7.png\"" width=\""480\"" height=\""270\"">""]",across,163,-71,71
301,6,Charles,1,A,6,6,Charles,2,B,2,90,mainplot,mainplot,NA,45,83,3923.2,"[""<img src=\""jspsych/stimuli/charles1A6.png\"" width=\""480\"" height=\""270\""> &nbsp <img src=\""jspsych/stimuli/charles2B2.png\"" width=\""480\"" height=\""270\"">""]",random,164,-38,38
301,6,Charles,1,E,5,69,Charles,2,C,5,109,mainplot,short,NA,36,39,6586.9,"[""<img src=\""jspsych/stimuli/charles1E5.png\"" width=\""480\"" height=\""270\""> &nbsp <img src=\""jspsych/stimuli/charles2C5.png\"" width=\""480\"" height=\""270\"">""]",across,165,-3,3
301,6,Charles,2,D,5,125,Charles,2,E,2,138,mainplot,mainplot,NA,6,12,5050.3,"[""<img src=\""jspsych/stimuli/charles2D5.png\"" width=\""480\"" height=\""270\""> &nbsp <img src=\""jspsych/stimuli/charles2E2.png\"" width=\""480\"" height=\""270\"">""]",random,166,-6,6
301,6,Sandra,1,A,5,61,Sandra,2,B,7,103,unrelated,short,NA,81,41,1850.7,"[""<img src=\""jspsych/stimuli/sandra1A5.png\"" width=\""480\"" height=\""270\""> &nbsp <img src=\""jspsych/stimuli/sandra2B7.png\"" width=\""480\"" height=\""270\"">""]",across,167,40,40
301,6,Johnny,1,A,8,32,Johnny,2,A,8,136,coherent,long,NA,80,103,4602.7,"[""<img src=\""jspsych/stimuli/johnny1A8.png\"" width=\""480\"" height=\""270\""> &nbsp <img src=\""jspsych/stimuli/johnny2A8.png\"" width=\""480\"" height=\""270\"">""]",across,168,-23,23
301,6,Charles,1,D,6,54,Sandra,1,A,6,62,unrelated,short,NA,42,7,4722.3,"[""<img src=\""jspsych/stimuli/charles1D6.png\"" width=\""480\"" height=\""270\""> &nbsp <img src=\""jspsych/stimuli/sandra1A6.png\"" width=\""480\"" height=\""270\"">""]",adjacent,169,35,35
301,6,Melvin,2,B,3,115,Charles,2,D,3,123,unrelated,long,NA,70,7,8001.5,"[""<img src=\""jspsych/stimuli/melvin2B3.png\"" width=\""480\"" height=\""270\""> &nbsp <img src=\""jspsych/stimuli/charles2D3.png\"" width=\""480\"" height=\""270\"">""]",adjacent,170,63,63
301,6,Sandra,1,A,2,58,Sandra,2,B,8,104,unrelated,short,NA,82,45,2907.5,"[""<img src=\""jspsych/stimuli/sandra1A2.png\"" width=\""480\"" height=\""270\""> &nbsp <img src=\""jspsych/stimuli/sandra2B8.png\"" width=\""480\"" height=\""270\"">""]",across,171,37,37
301,6,Melvin,1,A,7,15,Melvin,2,B,2,114,unrelated,long,NA,27,98,3179.4,"[""<img src=\""jspsych/stimuli/melvin1A7.png\"" width=\""480\"" height=\""270\""> &nbsp <img src=\""jspsych/stimuli/melvin2B2.png\"" width=\""480\"" height=\""270\"">""]",across,172,-71,71
301,6,Charles,2,A,3,75,Beatrice,2,A,3,83,coherent,short,NA,41,7,3844,"[""<img src=\""jspsych/stimuli/charles2A3.png\"" width=\""480\"" height=\""270\""> &nbsp <img src=\""jspsych/stimuli/beatrice2A3.png\"" width=\""480\"" height=\""270\"">""]",adjacent,173,34,34
301,6,Charles,1,C,4,36,Charles,2,A,4,76,mainplot,short,NA,64,39,7035.8,"[""<img src=\""jspsych/stimuli/charles1C4.png\"" width=\""480\"" height=\""270\""> &nbsp <img src=\""jspsych/stimuli/charles2A4.png\"" width=\""480\"" height=\""270\"">""]",across,174,25,25
301,6,Charles,1,E,3,67,Charles,2,A,6,78,mainplot,mainplot,NA,68,10,6010.5,"[""<img src=\""jspsych/stimuli/charles1E3.png\"" width=\""480\"" height=\""270\""> &nbsp <img src=\""jspsych/stimuli/charles2A6.png\"" width=\""480\"" height=\""270\"">""]",adjacent,175,58,58
301,6,Charles,1,B,6,22,Johnny,1,A,6,30,coherent,long,NA,20,7,4898.5,"[""<img src=\""jspsych/stimuli/charles1B6.png\"" width=\""480\"" height=\""270\""> &nbsp <img src=\""jspsych/stimuli/johnny1A6.png\"" width=\""480\"" height=\""270\"">""]",adjacent,176,13,13
301,6,Sandra,1,A,1,57,Sandra,1,A,6,62,unrelated,short,NA,77,4,2569.8,"[""<img src=\""jspsych/stimuli/sandra1A1.png\"" width=\""480\"" height=\""270\""> &nbsp <img src=\""jspsych/stimuli/sandra1A6.png\"" width=\""480\"" height=\""270\"">""]",within,177,73,73
301,6,Melvin,1,A,4,12,Melvin,2,B,4,116,unrelated,long,NA,32,103,4155.2,"[""<img src=\""jspsych/stimuli/melvin1A4.png\"" width=\""480\"" height=\""270\""> &nbsp <img src=\""jspsych/stimuli/melvin2B4.png\"" width=\""480\"" height=\""270\"">""]",across,178,-71,71
301,6,Beatrice,1,A,5,45,Beatrice,2,A,5,85,coherent,short,NA,93,39,4137.8,"[""<img src=\""jspsych/stimuli/beatrice1A5.png\"" width=\""480\"" height=\""270\""> &nbsp <img src=\""jspsych/stimuli/beatrice2A5.png\"" width=\""480\"" height=\""270\"">""]",across,179,54,54
301,6,Johnny,1,A,8,32,Johnny,2,A,3,131,coherent,long,NA,5,98,7964.1,"[""<img src=\""jspsych/stimuli/johnny1A8.png\"" width=\""480\"" height=\""270\""> &nbsp <img src=\""jspsych/stimuli/johnny2A3.png\"" width=\""480\"" height=\""270\"">""]",across,180,-93,93
301,6,Johnny,1,A,2,26,Johnny,2,A,8,136,coherent,long,NA,82,109,3275.6,"[""<img src=\""jspsych/stimuli/johnny1A2.png\"" width=\""480\"" height=\""270\""> &nbsp <img src=\""jspsych/stimuli/johnny2A8.png\"" width=\""480\"" height=\""270\"">""]",across,181,-27,27
301,6,Melvin,1,A,1,9,Melvin,2,B,4,116,unrelated,long,NA,22,106,9364.7,"[""<img src=\""jspsych/stimuli/melvin1A1.png\"" width=\""480\"" height=\""270\""> &nbsp <img src=\""jspsych/stimuli/melvin2B4.png\"" width=\""480\"" height=\""270\"">""]",across,182,-84,84
301,6,Beatrice,1,A,1,41,Beatrice,2,A,6,86,coherent,short,NA,84,44,7207,"[""<img src=\""jspsych/stimuli/beatrice1A1.png\"" width=\""480\"" height=\""270\""> &nbsp <img src=\""jspsych/stimuli/beatrice2A6.png\"" width=\""480\"" height=\""270\"">""]",across,183,40,40
301,6,Beatrice,1,A,1,41,Beatrice,2,A,1,81,coherent,short,NA,82,39,2754.4,"[""<img src=\""jspsych/stimuli/beatrice1A1.png\"" width=\""480\"" height=\""270\""> &nbsp <img src=\""jspsych/stimuli/beatrice2A1.png\"" width=\""480\"" height=\""270\"">""]",across,184,43,43
301,6,Charles,1,D,1,49,Sandra,1,A,1,57,unrelated,short,NA,26,7,5514.7,"[""<img src=\""jspsych/stimuli/charles1D1.png\"" width=\""480\"" height=\""270\""> &nbsp <img src=\""jspsych/stimuli/sandra1A1.png\"" width=\""480\"" height=\""270\"">""]",adjacent,185,19,19
301,6,Charles,2,C,8,112,Melvin,2,B,8,120,unrelated,long,NA,27,7,3890.6,"[""<img src=\""jspsych/stimuli/charles2C8.png\"" width=\""480\"" height=\""270\""> &nbsp <img src=\""jspsych/stimuli/melvin2B8.png\"" width=\""480\"" height=\""270\"">""]",adjacent,186,20,20
301,6,Charles,2,E,1,137,Charles,1,E,6,142,mainplot,mainplot,NA,30,4,6963.4,"[""<img src=\""jspsych/stimuli/charles2E1.png\"" width=\""480\"" height=\""270\""> &nbsp <img src=\""jspsych/stimuli/charles1E6.png\"" width=\""480\"" height=\""270\"">""]",within,187,26,26
301,6,Melvin,1,A,7,15,Melvin,2,B,7,119,unrelated,long,NA,21,103,4623.9,"[""<img src=\""jspsych/stimuli/melvin1A7.png\"" width=\""480\"" height=\""270\""> &nbsp <img src=\""jspsych/stimuli/melvin2B7.png\"" width=\""480\"" height=\""270\"">""]",across,188,-82,82
301,6,Beatrice,1,A,7,47,Beatrice,2,A,2,82,coherent,short,NA,84,34,3170.7,"[""<img src=\""jspsych/stimuli/beatrice1A7.png\"" width=\""480\"" height=\""270\""> &nbsp <img src=\""jspsych/stimuli/beatrice2A2.png\"" width=\""480\"" height=\""270\"">""]",across,189,50,50
301,6,Charles,1,B,4,20,Charles,2,B,1,89,mainplot,mainplot,NA,54,68,4169.7,"[""<img src=\""jspsych/stimuli/charles1B4.png\"" width=\""480\"" height=\""270\""> &nbsp <img src=\""jspsych/stimuli/charles2B1.png\"" width=\""480\"" height=\""270\"">""]",random,190,-14,14
310,32,Charles,1,E,3,67,Charles,2,A,4,76,mainplot,mainplot,NA,42,8,6545.7,"[""<img src=\""jspsych/stimuli/charles1E3.png\"" width=\""480\"" height=\""270\""> &nbsp <img src=\""jspsych/stimuli/charles2A4.png\"" width=\""480\"" height=\""270\"">""]",adjacent,23,34,34
310,32,Charles,2,B,1,89,Melvin,2,A,1,97,unrelated,short,NA,1,7,7027.3,"[""<img src=\""jspsych/stimuli/charles2B1.png\"" width=\""480\"" height=\""270\""> &nbsp <img src=\""jspsych/stimuli/melvin2A1.png\"" width=\""480\"" height=\""270\"">""]",adjacent,24,-6,6
310,32,Charles,1,B,4,20,Charles,2,B,1,89,mainplot,mainplot,NA,27,68,6651.1,"[""<img src=\""jspsych/stimuli/charles1B4.png\"" width=\""480\"" height=\""270\""> &nbsp <img src=\""jspsych/stimuli/charles2B1.png\"" width=\""480\"" height=\""270\"">""]",random,25,-41,41
310,32,Melvin,1,B,4,60,Melvin,2,A,2,98,unrelated,short,NA,100,37,7299.5,"[""<img src=\""jspsych/stimuli/melvin1B4.png\"" width=\""480\"" height=\""270\""> &nbsp <img src=\""jspsych/stimuli/melvin2A2.png\"" width=\""480\"" height=\""270\"">""]",across,26,63,63
310,32,Charles,2,D,6,126,Beatrice,2,A,6,134,unrelated,long,NA,20,7,6573.8,"[""<img src=\""jspsych/stimuli/charles2D6.png\"" width=\""480\"" height=\""270\""> &nbsp <img src=\""jspsych/stimuli/beatrice2A6.png\"" width=\""480\"" height=\""270\"">""]",adjacent,27,13,13
310,32,Charles,1,A,4,4,Charles,2,C,4,108,mainplot,long,NA,89,103,7012.2,"[""<img src=\""jspsych/stimuli/charles1A4.png\"" width=\""480\"" height=\""270\""> &nbsp <img src=\""jspsych/stimuli/charles2C4.png\"" width=\""480\"" height=\""270\"">""]",across,28,-14,14
310,32,Melvin,1,B,3,59,Melvin,2,A,7,103,unrelated,short,NA,108,43,9195.5,"[""<img src=\""jspsych/stimuli/melvin1B3.png\"" width=\""480\"" height=\""270\""> &nbsp <img src=\""jspsych/stimuli/melvin2A7.png\"" width=\""480\"" height=\""270\"">""]",across,29,65,65
310,32,Johnny,1,B,7,47,Johnny,2,B,2,82,coherent,short,NA,117,34,7635.8,"[""<img src=\""jspsych/stimuli/johnny1B7.png\"" width=\""480\"" height=\""270\""> &nbsp <img src=\""jspsych/stimuli/johnny2B2.png\"" width=\""480\"" height=\""270\"">""]",across,30,83,83
310,32,Charles,1,E,5,69,Charles,2,A,6,78,mainplot,mainplot,NA,36,8,7219.2,"[""<img src=\""jspsych/stimuli/charles1E5.png\"" width=\""480\"" height=\""270\""> &nbsp <img src=\""jspsych/stimuli/charles2A6.png\"" width=\""480\"" height=\""270\"">""]",adjacent,31,28,28
310,32,Charles,1,B,6,22,Beatrice,1,B,6,30,unrelated,long,NA,71,7,5675.9,"[""<img src=\""jspsych/stimuli/charles1B6.png\"" width=\""480\"" height=\""270\""> &nbsp <img src=\""jspsych/stimuli/beatrice1B6.png\"" width=\""480\"" height=\""270\"">""]",adjacent,32,64,64
310,32,Beatrice,1,B,5,29,Beatrice,2,A,5,133,unrelated,long,NA,106,103,8292.5,"[""<img src=\""jspsych/stimuli/beatrice1B5.png\"" width=\""480\"" height=\""270\""> &nbsp <img src=\""jspsych/stimuli/beatrice2A5.png\"" width=\""480\"" height=\""270\"">""]",across,33,3,3
310,32,Sandra,1,B,6,14,Sandra,2,B,6,118,coherent,long,NA,119,103,7355.6,"[""<img src=\""jspsych/stimuli/sandra1B6.png\"" width=\""480\"" height=\""270\""> &nbsp <img src=\""jspsych/stimuli/sandra2B6.png\"" width=\""480\"" height=\""270\"">""]",across,34,16,16
310,32,Charles,2,B,3,91,Charles,2,C,1,105,mainplot,mainplot,NA,0,13,5595.4,"[""<img src=\""jspsych/stimuli/charles2B3.png\"" width=\""480\"" height=\""270\""> &nbsp <img src=\""jspsych/stimuli/charles2C1.png\"" width=\""480\"" height=\""270\"">""]",random,35,-13,13
310,32,Sandra,1,B,7,15,Sandra,2,B,7,119,coherent,long,NA,117,103,9820.3,"[""<img src=\""jspsych/stimuli/sandra1B7.png\"" width=\""480\"" height=\""270\""> &nbsp <img src=\""jspsych/stimuli/sandra2B7.png\"" width=\""480\"" height=\""270\"">""]",across,36,14,14
310,32,Charles,2,B,7,95,Charles,2,C,7,111,mainplot,mainplot,NA,0,15,3087.5,"[""<img src=\""jspsych/stimuli/charles2B7.png\"" width=\""480\"" height=\""270\""> &nbsp <img src=\""jspsych/stimuli/charles2C7.png\"" width=\""480\"" height=\""270\"">""]",random,37,-15,15
310,32,Charles,1,A,6,6,Charles,2,B,2,90,mainplot,mainplot,NA,104,83,5045.6,"[""<img src=\""jspsych/stimuli/charles1A6.png\"" width=\""480\"" height=\""270\""> &nbsp <img src=\""jspsych/stimuli/charles2B2.png\"" width=\""480\"" height=\""270\"">""]",random,38,21,21
310,32,Charles,1,A,4,4,Charles,2,E,4,140,mainplot,mainplot,NA,133,135,5506.4,"[""<img src=\""jspsych/stimuli/charles1A4.png\"" width=\""480\"" height=\""270\""> &nbsp <img src=\""jspsych/stimuli/charles2E4.png\"" width=\""480\"" height=\""270\"">""]",random,39,-2,2
310,32,Charles,2,A,3,75,Johnny,2,B,3,83,coherent,short,NA,19,7,9492.5,"[""<img src=\""jspsych/stimuli/charles2A3.png\"" width=\""480\"" height=\""270\""> &nbsp <img src=\""jspsych/stimuli/johnny2B3.png\"" width=\""480\"" height=\""270\"">""]",adjacent,40,12,12
310,32,Sandra,1,B,4,12,Sandra,2,B,6,118,coherent,long,NA,127,105,6128.1,"[""<img src=\""jspsych/stimuli/sandra1B4.png\"" width=\""480\"" height=\""270\""> &nbsp <img src=\""jspsych/stimuli/sandra2B6.png\"" width=\""480\"" height=\""270\"">""]",across,41,22,22
310,32,Charles,1,A,3,3,Sandra,1,B,3,11,coherent,long,NA,60,7,9212.9,"[""<img src=\""jspsych/stimuli/charles1A3.png\"" width=\""480\"" height=\""270\""> &nbsp <img src=\""jspsych/stimuli/sandra1B3.png\"" width=\""480\"" height=\""270\"">""]",adjacent,42,53,53
310,32,Charles,2,C,8,112,Sandra,2,B,8,120,coherent,long,NA,45,7,6404.6,"[""<img src=\""jspsych/stimuli/charles2C8.png\"" width=\""480\"" height=\""270\""> &nbsp <img src=\""jspsych/stimuli/sandra2B8.png\"" width=\""480\"" height=\""270\"">""]",adjacent,43,38,38
310,32,Sandra,1,B,1,9,Sandra,2,B,1,113,coherent,long,NA,106,103,4499.7,"[""<img src=\""jspsych/stimuli/sandra1B1.png\"" width=\""480\"" height=\""270\""> &nbsp <img src=\""jspsych/stimuli/sandra2B1.png\"" width=\""480\"" height=\""270\"">""]",across,44,3,3
310,32,Charles,1,D,2,50,Charles,2,A,1,73,mainplot,mainplot,NA,4,22,6028.1,"[""<img src=\""jspsych/stimuli/charles1D2.png\"" width=\""480\"" height=\""270\""> &nbsp <img src=\""jspsych/stimuli/charles2A1.png\"" width=\""480\"" height=\""270\"">""]",random,45,-18,18
310,32,Charles,1,A,3,3,Charles,1,A,8,8,mainplot,mainplot,NA,53,4,5349.1,"[""<img src=\""jspsych/stimuli/charles1A3.png\"" width=\""480\"" height=\""270\""> &nbsp <img src=\""jspsych/stimuli/charles1A8.png\"" width=\""480\"" height=\""270\"">""]",within,46,49,49
310,32,Charles,1,C,2,34,Charles,1,C,8,40,mainplot,mainplot,NA,0,5,6276.6,"[""<img src=\""jspsych/stimuli/charles1C2.png\"" width=\""480\"" height=\""270\""> &nbsp <img src=\""jspsych/stimuli/charles1C8.png\"" width=\""480\"" height=\""270\"">""]",within,47,-5,5
310,32,Beatrice,1,B,5,29,Beatrice,2,A,3,131,unrelated,long,NA,42,101,6011.6,"[""<img src=\""jspsych/stimuli/beatrice1B5.png\"" width=\""480\"" height=\""270\""> &nbsp <img src=\""jspsych/stimuli/beatrice2A3.png\"" width=\""480\"" height=\""270\"">""]",across,48,-59,59
310,32,Charles,1,E,4,68,Charles,2,C,4,108,mainplot,short,NA,39,39,7349.2,"[""<img src=\""jspsych/stimuli/charles1E4.png\"" width=\""480\"" height=\""270\""> &nbsp <img src=\""jspsych/stimuli/charles2C4.png\"" width=\""480\"" height=\""270\"">""]",across,49,0,0
310,32,Melvin,1,B,3,59,Melvin,2,A,3,99,unrelated,short,NA,135,39,6708.9,"[""<img src=\""jspsych/stimuli/melvin1B3.png\"" width=\""480\"" height=\""270\""> &nbsp <img src=\""jspsych/stimuli/melvin2A3.png\"" width=\""480\"" height=\""270\"">""]",across,50,96,96
310,32,Sandra,1,B,8,16,Charles,1,B,8,24,coherent,long,NA,106,7,8659.5,"[""<img src=\""jspsych/stimuli/sandra1B8.png\"" width=\""480\"" height=\""270\""> &nbsp <img src=\""jspsych/stimuli/charles1B8.png\"" width=\""480\"" height=\""270\"">""]",adjacent,51,99,99
310,32,Charles,1,B,1,17,Beatrice,1,B,1,25,unrelated,long,NA,54,7,7094.2,"[""<img src=\""jspsych/stimuli/charles1B1.png\"" width=\""480\"" height=\""270\""> &nbsp <img src=\""jspsych/stimuli/beatrice1B1.png\"" width=\""480\"" height=\""270\"">""]",adjacent,52,47,47
310,32,Charles,1,B,4,20,Charles,1,D,5,53,mainplot,mainplot,NA,60,32,5436.4,"[""<img src=\""jspsych/stimuli/charles1B4.png\"" width=\""480\"" height=\""270\""> &nbsp <img src=\""jspsych/stimuli/charles1D5.png\"" width=\""480\"" height=\""270\"">""]",random,53,28,28
310,32,Charles,1,C,7,39,Charles,2,E,7,143,mainplot,long,NA,66,103,9371.4,"[""<img src=\""jspsych/stimuli/charles1C7.png\"" width=\""480\"" height=\""270\""> &nbsp <img src=\""jspsych/stimuli/charles2E7.png\"" width=\""480\"" height=\""270\"">""]",across,54,-37,37
310,32,Charles,1,C,4,36,Charles,1,D,4,52,mainplot,mainplot,NA,0,15,2897.9,"[""<img src=\""jspsych/stimuli/charles1C4.png\"" width=\""480\"" height=\""270\""> &nbsp <img src=\""jspsych/stimuli/charles1D4.png\"" width=\""480\"" height=\""270\"">""]",random,55,-15,15
310,32,Johnny,1,B,6,46,Johnny,2,B,4,84,coherent,short,NA,124,37,7907.5,"[""<img src=\""jspsych/stimuli/johnny1B6.png\"" width=\""480\"" height=\""270\""> &nbsp <img src=\""jspsych/stimuli/johnny2B4.png\"" width=\""480\"" height=\""270\"">""]",across,56,87,87
310,32,Charles,1,B,2,18,Charles,2,D,2,122,mainplot,long,NA,7,103,6131.2,"[""<img src=\""jspsych/stimuli/charles1B2.png\"" width=\""480\"" height=\""270\""> &nbsp <img src=\""jspsych/stimuli/charles2D2.png\"" width=\""480\"" height=\""270\"">""]",across,57,-96,96
310,32,Sandra,1,B,4,12,Sandra,2,B,1,113,coherent,long,NA,124,100,5490.8,"[""<img src=\""jspsych/stimuli/sandra1B4.png\"" width=\""480\"" height=\""270\""> &nbsp <img src=\""jspsych/stimuli/sandra2B1.png\"" width=\""480\"" height=\""270\"">""]",across,58,24,24
310,32,Melvin,1,B,7,63,Melvin,2,A,7,103,unrelated,short,NA,121,39,4467.8,"[""<img src=\""jspsych/stimuli/melvin1B7.png\"" width=\""480\"" height=\""270\""> &nbsp <img src=\""jspsych/stimuli/melvin2A7.png\"" width=\""480\"" height=\""270\"">""]",across,59,82,82
310,32,Melvin,2,A,1,97,Charles,2,C,1,105,unrelated,short,NA,53,7,7059.8,"[""<img src=\""jspsych/stimuli/melvin2A1.png\"" width=\""480\"" height=\""270\""> &nbsp <img src=\""jspsych/stimuli/charles2C1.png\"" width=\""480\"" height=\""270\"">""]",adjacent,60,46,46
310,32,Sandra,2,B,8,120,Charles,2,D,8,128,coherent,long,NA,122,7,7316,"[""<img src=\""jspsych/stimuli/sandra2B8.png\"" width=\""480\"" height=\""270\""> &nbsp <img src=\""jspsych/stimuli/charles2D8.png\"" width=\""480\"" height=\""270\"">""]",adjacent,61,115,115
310,32,Johnny,1,B,5,45,Johnny,2,B,2,82,coherent,short,NA,133,36,6331.1,"[""<img src=\""jspsych/stimuli/johnny1B5.png\"" width=\""480\"" height=\""270\""> &nbsp <img src=\""jspsych/stimuli/johnny2B2.png\"" width=\""480\"" height=\""270\"">""]",across,62,97,97
310,32,Melvin,1,B,8,64,Melvin,2,A,3,99,unrelated,short,NA,119,34,4147.4,"[""<img src=\""jspsych/stimuli/melvin1B8.png\"" width=\""480\"" height=\""270\""> &nbsp <img src=\""jspsych/stimuli/melvin2A3.png\"" width=\""480\"" height=\""270\"">""]",across,63,85,85
310,32,Beatrice,1,B,5,29,Beatrice,2,A,7,135,unrelated,long,NA,93,105,5148.5,"[""<img src=\""jspsych/stimuli/beatrice1B5.png\"" width=\""480\"" height=\""270\""> &nbsp <img src=\""jspsych/stimuli/beatrice2A7.png\"" width=\""480\"" height=\""270\"">""]",across,64,-12,12
310,32,Charles,1,D,6,54,Melvin,1,B,6,62,unrelated,short,NA,40,7,9108.6,"[""<img src=\""jspsych/stimuli/charles1D6.png\"" width=\""480\"" height=\""270\""> &nbsp <img src=\""jspsych/stimuli/melvin1B6.png\"" width=\""480\"" height=\""270\"">""]",adjacent,65,33,33
310,32,Melvin,1,B,3,59,Melvin,2,A,4,100,unrelated,short,NA,127,40,4986.9,"[""<img src=\""jspsych/stimuli/melvin1B3.png\"" width=\""480\"" height=\""270\""> &nbsp <img src=\""jspsych/stimuli/melvin2A4.png\"" width=\""480\"" height=\""270\"">""]",across,66,87,87
310,32,Charles,1,B,6,22,Charles,1,B,7,23,mainplot,mainplot,NA,0,0,6235.1,"[""<img src=\""jspsych/stimuli/charles1B6.png\"" width=\""480\"" height=\""270\""> &nbsp <img src=\""jspsych/stimuli/charles1B7.png\"" width=\""480\"" height=\""270\"">""]",within,67,0,0
310,32,Sandra,1,B,2,10,Sandra,2,B,5,117,coherent,long,NA,108,106,4291.6,"[""<img src=\""jspsych/stimuli/sandra1B2.png\"" width=\""480\"" height=\""270\""> &nbsp <img src=\""jspsych/stimuli/sandra2B5.png\"" width=\""480\"" height=\""270\"">""]",across,68,2,2
310,32,Charles,1,C,5,37,Charles,2,E,5,141,mainplot,long,NA,43,103,9819.7,"[""<img src=\""jspsych/stimuli/charles1C5.png\"" width=\""480\"" height=\""270\""> &nbsp <img src=\""jspsych/stimuli/charles2E5.png\"" width=\""480\"" height=\""270\"">""]",across,69,-60,60
310,32,Melvin,1,B,2,58,Melvin,2,A,8,104,unrelated,short,NA,111,45,9606.4,"[""<img src=\""jspsych/stimuli/melvin1B2.png\"" width=\""480\"" height=\""270\""> &nbsp <img src=\""jspsych/stimuli/melvin2A8.png\"" width=\""480\"" height=\""270\"">""]",across,70,66,66
310,32,Johnny,1,B,8,48,Charles,1,D,8,56,coherent,short,NA,43,7,6336.5,"[""<img src=\""jspsych/stimuli/johnny1B8.png\"" width=\""480\"" height=\""270\""> &nbsp <img src=\""jspsych/stimuli/charles1D8.png\"" width=\""480\"" height=\""270\"">""]",adjacent,71,36,36
310,32,Charles,1,D,6,54,Charles,2,D,2,122,mainplot,mainplot,NA,50,67,3124.6,"[""<img src=\""jspsych/stimuli/charles1D6.png\"" width=\""480\"" height=\""270\""> &nbsp <img src=\""jspsych/stimuli/charles2D2.png\"" width=\""480\"" height=\""270\"">""]",random,72,-17,17
310,32,Sandra,1,B,1,9,Sandra,2,B,6,118,coherent,long,NA,8,108,8124.8,"[""<img src=\""jspsych/stimuli/sandra1B1.png\"" width=\""480\"" height=\""270\""> &nbsp <img src=\""jspsych/stimuli/sandra2B6.png\"" width=\""480\"" height=\""270\"">""]",across,73,-100,100
310,32,Beatrice,1,B,7,31,Beatrice,2,A,5,133,unrelated,long,NA,103,101,8883.9,"[""<img src=\""jspsych/stimuli/beatrice1B7.png\"" width=\""480\"" height=\""270\""> &nbsp <img src=\""jspsych/stimuli/beatrice2A5.png\"" width=\""480\"" height=\""270\"">""]",across,74,2,2
310,32,Melvin,1,B,2,58,Melvin,2,A,2,98,unrelated,short,NA,135,39,4871.2,"[""<img src=\""jspsych/stimuli/melvin1B2.png\"" width=\""480\"" height=\""270\""> &nbsp <img src=\""jspsych/stimuli/melvin2A2.png\"" width=\""480\"" height=\""270\"">""]",across,75,96,96
310,32,Melvin,1,B,6,62,Charles,1,E,6,70,unrelated,short,NA,91,7,8348.3,"[""<img src=\""jspsych/stimuli/melvin1B6.png\"" width=\""480\"" height=\""270\""> &nbsp <img src=\""jspsych/stimuli/charles1E6.png\"" width=\""480\"" height=\""270\"">""]",adjacent,76,84,84
310,32,Beatrice,1,B,3,27,Beatrice,2,A,7,135,unrelated,long,NA,103,107,7268.2,"[""<img src=\""jspsych/stimuli/beatrice1B3.png\"" width=\""480\"" height=\""270\""> &nbsp <img src=\""jspsych/stimuli/beatrice2A7.png\"" width=\""480\"" height=\""270\"">""]",across,77,-4,4
310,32,Charles,1,B,3,19,Charles,1,D,1,49,mainplot,mainplot,NA,57,29,7019.4,"[""<img src=\""jspsych/stimuli/charles1B3.png\"" width=\""480\"" height=\""270\""> &nbsp <img src=\""jspsych/stimuli/charles1D1.png\"" width=\""480\"" height=\""270\"">""]",random,78,28,28
310,32,Johnny,2,B,3,83,Charles,2,B,3,91,coherent,short,NA,56,7,5748.5,"[""<img src=\""jspsych/stimuli/johnny2B3.png\"" width=\""480\"" height=\""270\""> &nbsp <img src=\""jspsych/stimuli/charles2B3.png\"" width=\""480\"" height=\""270\"">""]",adjacent,79,49,49
310,32,Sandra,1,B,2,10,Sandra,2,B,2,114,coherent,long,NA,110,103,3396.1,"[""<img src=\""jspsych/stimuli/sandra1B2.png\"" width=\""480\"" height=\""270\""> &nbsp <img src=\""jspsych/stimuli/sandra2B2.png\"" width=\""480\"" height=\""270\"">""]",across,80,7,7
310,32,Charles,1,A,2,2,Charles,2,C,2,106,mainplot,long,NA,12,103,8995.3,"[""<img src=\""jspsych/stimuli/charles1A2.png\"" width=\""480\"" height=\""270\""> &nbsp <img src=\""jspsych/stimuli/charles2C2.png\"" width=\""480\"" height=\""270\"">""]",across,81,-91,91
310,32,Charles,2,C,3,107,Charles,2,C,5,109,mainplot,mainplot,NA,0,1,5701.8,"[""<img src=\""jspsych/stimuli/charles2C3.png\"" width=\""480\"" height=\""270\""> &nbsp <img src=\""jspsych/stimuli/charles2C5.png\"" width=\""480\"" height=\""270\"">""]",within,82,-1,1
310,32,Johnny,1,B,5,45,Johnny,2,B,7,87,coherent,short,NA,125,41,6931.8,"[""<img src=\""jspsych/stimuli/johnny1B5.png\"" width=\""480\"" height=\""270\""> &nbsp <img src=\""jspsych/stimuli/johnny2B7.png\"" width=\""480\"" height=\""270\"">""]",across,83,84,84
310,32,Melvin,1,B,7,63,Melvin,2,A,2,98,unrelated,short,NA,110,34,2364.4,"[""<img src=\""jspsych/stimuli/melvin1B7.png\"" width=\""480\"" height=\""270\""> &nbsp <img src=\""jspsych/stimuli/melvin2A2.png\"" width=\""480\"" height=\""270\"">""]",across,84,76,76
310,32,Johnny,1,B,5,45,Johnny,2,B,5,85,coherent,short,NA,94,39,7747.1,"[""<img src=\""jspsych/stimuli/johnny1B5.png\"" width=\""480\"" height=\""270\""> &nbsp <img src=\""jspsych/stimuli/johnny2B5.png\"" width=\""480\"" height=\""270\"">""]",across,85,55,55
310,32,Beatrice,1,B,4,28,Beatrice,2,A,8,136,unrelated,long,NA,96,107,2539.4,"[""<img src=\""jspsych/stimuli/beatrice1B4.png\"" width=\""480\"" height=\""270\""> &nbsp <img src=\""jspsych/stimuli/beatrice2A8.png\"" width=\""480\"" height=\""270\"">""]",across,86,-11,11
310,32,Charles,1,C,3,35,Charles,1,D,8,56,mainplot,mainplot,NA,0,20,1739.9,"[""<img src=\""jspsych/stimuli/charles1C3.png\"" width=\""480\"" height=\""270\""> &nbsp <img src=\""jspsych/stimuli/charles1D8.png\"" width=\""480\"" height=\""270\"">""]",random,87,-20,20
310,32,Melvin,2,A,1,97,Melvin,2,A,6,102,unrelated,short,NA,6,4,7461.1,"[""<img src=\""jspsych/stimuli/melvin2A1.png\"" width=\""480\"" height=\""270\""> &nbsp <img src=\""jspsych/stimuli/melvin2A6.png\"" width=\""480\"" height=\""270\"">""]",within,88,2,2
310,32,Johnny,2,B,8,88,Charles,2,B,8,96,coherent,short,NA,25,7,6972,"[""<img src=\""jspsych/stimuli/johnny2B8.png\"" width=\""480\"" height=\""270\""> &nbsp <img src=\""jspsych/stimuli/charles2B8.png\"" width=\""480\"" height=\""270\"">""]",adjacent,89,18,18
310,32,Melvin,1,B,7,63,Melvin,2,A,5,101,unrelated,short,NA,120,37,4099.8,"[""<img src=\""jspsych/stimuli/melvin1B7.png\"" width=\""480\"" height=\""270\""> &nbsp <img src=\""jspsych/stimuli/melvin2A5.png\"" width=\""480\"" height=\""270\"">""]",across,90,83,83
310,32,Charles,1,E,1,65,Charles,2,A,1,73,mainplot,mainplot,NA,29,7,6539.5,"[""<img src=\""jspsych/stimuli/charles1E1.png\"" width=\""480\"" height=\""270\""> &nbsp <img src=\""jspsych/stimuli/charles2A1.png\"" width=\""480\"" height=\""270\"">""]",adjacent,91,22,22
310,32,Sandra,1,B,5,13,Sandra,2,B,5,117,coherent,long,NA,129,103,5675.2,"[""<img src=\""jspsych/stimuli/sandra1B5.png\"" width=\""480\"" height=\""270\""> &nbsp <img src=\""jspsych/stimuli/sandra2B5.png\"" width=\""480\"" height=\""270\"">""]",across,92,26,26
310,32,Sandra,1,B,3,11,Charles,1,B,3,19,coherent,long,NA,23,7,4092.4,"[""<img src=\""jspsych/stimuli/sandra1B3.png\"" width=\""480\"" height=\""270\""> &nbsp <img src=\""jspsych/stimuli/charles1B3.png\"" width=\""480\"" height=\""270\"">""]",adjacent,93,16,16
310,32,Beatrice,1,B,2,26,Beatrice,2,A,8,136,unrelated,long,NA,108,109,2693,"[""<img src=\""jspsych/stimuli/beatrice1B2.png\"" width=\""480\"" height=\""270\""> &nbsp <img src=\""jspsych/stimuli/beatrice2A8.png\"" width=\""480\"" height=\""270\"">""]",across,94,-1,1
310,32,Johnny,1,B,1,41,Johnny,2,B,4,84,coherent,short,NA,57,42,7908.1,"[""<img src=\""jspsych/stimuli/johnny1B1.png\"" width=\""480\"" height=\""270\""> &nbsp <img src=\""jspsych/stimuli/johnny2B4.png\"" width=\""480\"" height=\""270\"">""]",across,95,15,15
310,32,Charles,1,E,3,67,Charles,2,A,6,78,mainplot,mainplot,NA,58,10,6691.8,"[""<img src=\""jspsych/stimuli/charles1E3.png\"" width=\""480\"" height=\""270\""> &nbsp <img src=\""jspsych/stimuli/charles2A6.png\"" width=\""480\"" height=\""270\"">""]",adjacent,96,48,48
310,32,Beatrice,1,B,2,26,Beatrice,2,A,5,133,unrelated,long,NA,92,106,3907.3,"[""<img src=\""jspsych/stimuli/beatrice1B2.png\"" width=\""480\"" height=\""270\""> &nbsp <img src=\""jspsych/stimuli/beatrice2A5.png\"" width=\""480\"" height=\""270\"">""]",across,97,-14,14
310,32,Charles,1,B,7,23,Charles,2,D,7,127,mainplot,long,NA,46,103,8412.3,"[""<img src=\""jspsych/stimuli/charles1B7.png\"" width=\""480\"" height=\""270\""> &nbsp <img src=\""jspsych/stimuli/charles2D7.png\"" width=\""480\"" height=\""270\"">""]",across,98,-57,57
310,32,Melvin,1,B,4,60,Melvin,2,A,4,100,unrelated,short,NA,110,39,5959.3,"[""<img src=\""jspsych/stimuli/melvin1B4.png\"" width=\""480\"" height=\""270\""> &nbsp <img src=\""jspsych/stimuli/melvin2A4.png\"" width=\""480\"" height=\""270\"">""]",across,99,71,71
310,32,Charles,1,E,5,69,Charles,2,C,5,109,mainplot,short,NA,29,39,3020,"[""<img src=\""jspsych/stimuli/charles1E5.png\"" width=\""480\"" height=\""270\""> &nbsp <img src=\""jspsych/stimuli/charles2C5.png\"" width=\""480\"" height=\""270\"">""]",across,100,-10,10
310,32,Johnny,1,B,1,41,Johnny,2,B,1,81,coherent,short,NA,38,39,5276.2,"[""<img src=\""jspsych/stimuli/johnny1B1.png\"" width=\""480\"" height=\""270\""> &nbsp <img src=\""jspsych/stimuli/johnny2B1.png\"" width=\""480\"" height=\""270\"">""]",across,101,-1,1
310,32,Charles,2,A,8,80,Johnny,2,B,8,88,coherent,short,NA,30,7,4276.5,"[""<img src=\""jspsych/stimuli/charles2A8.png\"" width=\""480\"" height=\""270\""> &nbsp <img src=\""jspsych/stimuli/johnny2B8.png\"" width=\""480\"" height=\""270\"">""]",adjacent,102,23,23
310,32,Charles,1,A,7,7,Charles,2,C,7,111,mainplot,long,NA,109,103,3020.3,"[""<img src=\""jspsych/stimuli/charles1A7.png\"" width=\""480\"" height=\""270\""> &nbsp <img src=\""jspsych/stimuli/charles2C7.png\"" width=\""480\"" height=\""270\"">""]",across,103,6,6
310,32,Johnny,1,B,4,44,Johnny,2,B,1,81,coherent,short,NA,61,36,4467.3,"[""<img src=\""jspsych/stimuli/johnny1B4.png\"" width=\""480\"" height=\""270\""> &nbsp <img src=\""jspsych/stimuli/johnny2B1.png\"" width=\""480\"" height=\""270\"">""]",across,104,25,25
310,32,Charles,2,D,1,121,Beatrice,2,A,1,129,unrelated,long,NA,6,7,4532,"[""<img src=\""jspsych/stimuli/charles2D1.png\"" width=\""480\"" height=\""270\""> &nbsp <img src=\""jspsych/stimuli/beatrice2A1.png\"" width=\""480\"" height=\""270\"">""]",adjacent,105,-1,1
310,32,Charles,1,E,2,66,Charles,2,C,2,106,mainplot,short,NA,21,39,4956.2,"[""<img src=\""jspsych/stimuli/charles1E2.png\"" width=\""480\"" height=\""270\""> &nbsp <img src=\""jspsych/stimuli/charles2C2.png\"" width=\""480\"" height=\""270\"">""]",across,106,-18,18
310,32,Sandra,1,B,3,11,Sandra,1,B,8,16,coherent,long,NA,0,4,2843.7,"[""<img src=\""jspsych/stimuli/sandra1B3.png\"" width=\""480\"" height=\""270\""> &nbsp <img src=\""jspsych/stimuli/sandra1B8.png\"" width=\""480\"" height=\""270\"">""]",within,107,-4,4
310,32,Sandra,2,B,3,115,Charles,2,D,3,123,coherent,long,NA,122,7,7620.7,"[""<img src=\""jspsych/stimuli/sandra2B3.png\"" width=\""480\"" height=\""270\""> &nbsp <img src=\""jspsych/stimuli/charles2D3.png\"" width=\""480\"" height=\""270\"">""]",adjacent,108,115,115
310,32,Charles,1,E,8,72,Charles,2,A,8,80,mainplot,mainplot,NA,59,7,7028,"[""<img src=\""jspsych/stimuli/charles1E8.png\"" width=\""480\"" height=\""270\""> &nbsp <img src=\""jspsych/stimuli/charles2A8.png\"" width=\""480\"" height=\""270\"">""]",adjacent,109,52,52
310,32,Melvin,2,A,6,102,Charles,2,C,6,110,unrelated,short,NA,0,7,4155.9,"[""<img src=\""jspsych/stimuli/melvin2A6.png\"" width=\""480\"" height=\""270\""> &nbsp <img src=\""jspsych/stimuli/charles2C6.png\"" width=\""480\"" height=\""270\"">""]",adjacent,110,-7,7
310,32,Charles,2,B,4,92,Charles,2,B,6,94,mainplot,mainplot,NA,0,1,1907.2,"[""<img src=\""jspsych/stimuli/charles2B4.png\"" width=\""480\"" height=\""270\""> &nbsp <img src=\""jspsych/stimuli/charles2B6.png\"" width=\""480\"" height=\""270\"">""]",within,111,-1,1
310,32,Johnny,1,B,2,42,Johnny,2,B,5,85,coherent,short,NA,87,42,7645.1,"[""<img src=\""jspsych/stimuli/johnny1B2.png\"" width=\""480\"" height=\""270\""> &nbsp <img src=\""jspsych/stimuli/johnny2B5.png\"" width=\""480\"" height=\""270\"">""]",across,112,45,45
310,32,Melvin,1,B,8,64,Melvin,2,A,4,100,unrelated,short,NA,104,35,3532.6,"[""<img src=\""jspsych/stimuli/melvin1B8.png\"" width=\""480\"" height=\""270\""> &nbsp <img src=\""jspsych/stimuli/melvin2A4.png\"" width=\""480\"" height=\""270\"">""]",across,113,69,69
310,32,Melvin,1,B,1,57,Melvin,1,B,6,62,unrelated,short,NA,20,4,3908.1,"[""<img src=\""jspsych/stimuli/melvin1B1.png\"" width=\""480\"" height=\""270\""> &nbsp <img src=\""jspsych/stimuli/melvin1B6.png\"" width=\""480\"" height=\""270\"">""]",within,114,16,16
310,32,Beatrice,2,A,1,129,Charles,2,E,1,137,unrelated,long,NA,20,7,3386.7,"[""<img src=\""jspsych/stimuli/beatrice2A1.png\"" width=\""480\"" height=\""270\""> &nbsp <img src=\""jspsych/stimuli/charles2E1.png\"" width=\""480\"" height=\""270\"">""]",adjacent,115,13,13
310,32,Sandra,1,B,6,14,Sandra,2,B,1,113,coherent,long,NA,110,98,7674.9,"[""<img src=\""jspsych/stimuli/sandra1B6.png\"" width=\""480\"" height=\""270\""> &nbsp <img src=\""jspsych/stimuli/sandra2B1.png\"" width=\""480\"" height=\""270\"">""]",across,116,12,12
310,32,Beatrice,2,A,6,134,Charles,2,E,6,142,unrelated,long,NA,10,7,4483.4,"[""<img src=\""jspsych/stimuli/beatrice2A6.png\"" width=\""480\"" height=\""270\""> &nbsp <img src=\""jspsych/stimuli/charles2E6.png\"" width=\""480\"" height=\""270\"">""]",adjacent,117,3,3
310,32,Sandra,1,B,4,12,Sandra,2,B,4,116,coherent,long,NA,106,103,5124.4,"[""<img src=\""jspsych/stimuli/sandra1B4.png\"" width=\""480\"" height=\""270\""> &nbsp <img src=\""jspsych/stimuli/sandra2B4.png\"" width=\""480\"" height=\""270\"">""]",across,118,3,3
310,32,Beatrice,1,B,7,31,Beatrice,2,A,2,130,unrelated,long,NA,91,98,2307.7,"[""<img src=\""jspsych/stimuli/beatrice1B7.png\"" width=\""480\"" height=\""270\""> &nbsp <img src=\""jspsych/stimuli/beatrice2A2.png\"" width=\""480\"" height=\""270\"">""]",across,119,-7,7
310,32,Johnny,1,B,4,44,Johnny,2,B,4,84,coherent,short,NA,96,39,3188.2,"[""<img src=\""jspsych/stimuli/johnny1B4.png\"" width=\""480\"" height=\""270\""> &nbsp <img src=\""jspsych/stimuli/johnny2B4.png\"" width=\""480\"" height=\""270\"">""]",across,120,57,57
310,32,Charles,1,E,8,72,Charles,2,C,8,112,mainplot,short,NA,30,39,4435.2,"[""<img src=\""jspsych/stimuli/charles1E8.png\"" width=\""480\"" height=\""270\""> &nbsp <img src=\""jspsych/stimuli/charles2C8.png\"" width=\""480\"" height=\""270\"">""]",across,121,-9,9
310,32,Johnny,1,B,3,43,Charles,1,D,3,51,coherent,short,NA,60,7,3195.6,"[""<img src=\""jspsych/stimuli/johnny1B3.png\"" width=\""480\"" height=\""270\""> &nbsp <img src=\""jspsych/stimuli/charles1D3.png\"" width=\""480\"" height=\""270\"">""]",adjacent,122,53,53
310,32,Charles,1,B,2,18,Charles,1,B,5,21,mainplot,mainplot,NA,2,2,7172.1,"[""<img src=\""jspsych/stimuli/charles1B2.png\"" width=\""480\"" height=\""270\""> &nbsp <img src=\""jspsych/stimuli/charles1B5.png\"" width=\""480\"" height=\""270\"">""]",within,123,0,0
310,32,Charles,1,C,2,34,Charles,2,E,2,138,mainplot,long,NA,77,103,3763.9,"[""<img src=\""jspsych/stimuli/charles1C2.png\"" width=\""480\"" height=\""270\""> &nbsp <img src=\""jspsych/stimuli/charles2E2.png\"" width=\""480\"" height=\""270\"">""]",across,124,-26,26
310,32,Johnny,2,B,3,83,Johnny,2,B,8,88,coherent,short,NA,2,4,9180.3,"[""<img src=\""jspsych/stimuli/johnny2B3.png\"" width=\""480\"" height=\""270\""> &nbsp <img src=\""jspsych/stimuli/johnny2B8.png\"" width=\""480\"" height=\""270\"">""]",within,125,-2,2
310,32,Charles,1,A,2,2,Charles,2,E,5,141,mainplot,mainplot,NA,138,138,9310.8,"[""<img src=\""jspsych/stimuli/charles1A2.png\"" width=\""480\"" height=\""270\""> &nbsp <img src=\""jspsych/stimuli/charles2E5.png\"" width=\""480\"" height=\""270\"">""]",random,126,0,0
310,32,Charles,1,C,3,35,Johnny,1,B,3,43,coherent,short,NA,3,7,4968.2,"[""<img src=\""jspsych/stimuli/charles1C3.png\"" width=\""480\"" height=\""270\""> &nbsp <img src=\""jspsych/stimuli/johnny1B3.png\"" width=\""480\"" height=\""270\"">""]",adjacent,127,-4,4
310,32,Melvin,1,B,2,58,Melvin,2,A,5,101,unrelated,short,NA,118,42,2308.2,"[""<img src=\""jspsych/stimuli/melvin1B2.png\"" width=\""480\"" height=\""270\""> &nbsp <img src=\""jspsych/stimuli/melvin2A5.png\"" width=\""480\"" height=\""270\"">""]",across,128,76,76
310,32,Beatrice,1,B,6,30,Charles,1,C,6,38,unrelated,long,NA,46,7,3780.2,"[""<img src=\""jspsych/stimuli/beatrice1B6.png\"" width=\""480\"" height=\""270\""> &nbsp <img src=\""jspsych/stimuli/charles1C6.png\"" width=\""480\"" height=\""270\"">""]",adjacent,129,39,39
310,32,Sandra,1,B,1,9,Sandra,2,B,4,116,coherent,long,NA,118,106,6755.1,"[""<img src=\""jspsych/stimuli/sandra1B1.png\"" width=\""480\"" height=\""270\""> &nbsp <img src=\""jspsych/stimuli/sandra2B4.png\"" width=\""480\"" height=\""270\"">""]",across,130,12,12
310,32,Johnny,1,B,1,41,Johnny,2,B,6,86,coherent,short,NA,100,44,4468.6,"[""<img src=\""jspsych/stimuli/johnny1B1.png\"" width=\""480\"" height=\""270\""> &nbsp <img src=\""jspsych/stimuli/johnny2B6.png\"" width=\""480\"" height=\""270\"">""]",across,131,56,56
310,32,Sandra,2,B,3,115,Sandra,2,B,8,120,coherent,long,NA,7,4,3636.3,"[""<img src=\""jspsych/stimuli/sandra2B3.png\"" width=\""480\"" height=\""270\""> &nbsp <img src=\""jspsych/stimuli/sandra2B8.png\"" width=\""480\"" height=\""270\"">""]",within,132,3,3
310,32,Johnny,1,B,2,42,Johnny,2,B,2,82,coherent,short,NA,101,39,2859.7,"[""<img src=\""jspsych/stimuli/johnny1B2.png\"" width=\""480\"" height=\""270\""> &nbsp <img src=\""jspsych/stimuli/johnny2B2.png\"" width=\""480\"" height=\""270\"">""]",across,133,62,62
310,32,Sandra,1,B,7,15,Sandra,2,B,2,114,coherent,long,NA,84,98,3709.6,"[""<img src=\""jspsych/stimuli/sandra1B7.png\"" width=\""480\"" height=\""270\""> &nbsp <img src=\""jspsych/stimuli/sandra2B2.png\"" width=\""480\"" height=\""270\"">""]",across,134,-14,14
310,32,Charles,2,E,4,140,Charles,2,E,7,143,mainplot,mainplot,NA,0,2,4043.8,"[""<img src=\""jspsych/stimuli/charles2E4.png\"" width=\""480\"" height=\""270\""> &nbsp <img src=\""jspsych/stimuli/charles2E7.png\"" width=\""480\"" height=\""270\"">""]",within,135,-2,2
310,32,Beatrice,1,B,1,25,Beatrice,1,B,6,30,unrelated,long,NA,11,4,5380.4,"[""<img src=\""jspsych/stimuli/beatrice1B1.png\"" width=\""480\"" height=\""270\""> &nbsp <img src=\""jspsych/stimuli/beatrice1B6.png\"" width=\""480\"" height=\""270\"">""]",within,136,7,7
310,32,Charles,1,A,7,7,Charles,1,B,1,17,mainplot,mainplot,NA,0,9,3971.7,"[""<img src=\""jspsych/stimuli/charles1A7.png\"" width=\""480\"" height=\""270\""> &nbsp <img src=\""jspsych/stimuli/charles1B1.png\"" width=\""480\"" height=\""270\"">""]",random,137,-9,9
310,32,Melvin,1,B,1,57,Charles,1,E,1,65,unrelated,short,NA,66,7,3180.5,"[""<img src=\""jspsych/stimuli/melvin1B1.png\"" width=\""480\"" height=\""270\""> &nbsp <img src=\""jspsych/stimuli/charles1E1.png\"" width=\""480\"" height=\""270\"">""]",adjacent,138,59,59
310,32,Johnny,1,B,4,44,Johnny,2,B,6,86,coherent,short,NA,99,41,6739.6,"[""<img src=\""jspsych/stimuli/johnny1B4.png\"" width=\""480\"" height=\""270\""> &nbsp <img src=\""jspsych/stimuli/johnny2B6.png\"" width=\""480\"" height=\""270\"">""]",across,139,58,58
310,32,Sandra,1,B,5,13,Sandra,2,B,7,119,coherent,long,NA,132,105,4075.7,"[""<img src=\""jspsych/stimuli/sandra1B5.png\"" width=\""480\"" height=\""270\""> &nbsp <img src=\""jspsych/stimuli/sandra2B7.png\"" width=\""480\"" height=\""270\"">""]",across,140,27,27
310,32,Sandra,1,B,7,15,Sandra,2,B,5,117,coherent,long,NA,98,101,4659,"[""<img src=\""jspsych/stimuli/sandra1B7.png\"" width=\""480\"" height=\""270\""> &nbsp <img src=\""jspsych/stimuli/sandra2B5.png\"" width=\""480\"" height=\""270\"">""]",across,141,-3,3
310,32,Charles,1,E,4,68,Charles,2,A,5,77,mainplot,mainplot,NA,21,8,3836.9,"[""<img src=\""jspsych/stimuli/charles1E4.png\"" width=\""480\"" height=\""270\""> &nbsp <img src=\""jspsych/stimuli/charles2A5.png\"" width=\""480\"" height=\""270\"">""]",adjacent,142,13,13
310,32,Melvin,1,B,4,60,Melvin,2,A,8,104,unrelated,short,NA,95,43,5285.1,"[""<img src=\""jspsych/stimuli/melvin1B4.png\"" width=\""480\"" height=\""270\""> &nbsp <img src=\""jspsych/stimuli/melvin2A8.png\"" width=\""480\"" height=\""270\"">""]",across,143,52,52
310,32,Johnny,1,B,6,46,Johnny,2,B,1,81,coherent,short,NA,116,34,5604.9,"[""<img src=\""jspsych/stimuli/johnny1B6.png\"" width=\""480\"" height=\""270\""> &nbsp <img src=\""jspsych/stimuli/johnny2B1.png\"" width=\""480\"" height=\""270\"">""]",across,144,82,82
310,32,Charles,1,E,2,66,Charles,2,A,3,75,mainplot,mainplot,NA,42,8,3523.7,"[""<img src=\""jspsych/stimuli/charles1E2.png\"" width=\""480\"" height=\""270\""> &nbsp <img src=\""jspsych/stimuli/charles2A3.png\"" width=\""480\"" height=\""270\"">""]",adjacent,145,34,34
310,32,Charles,1,C,5,37,Charles,2,A,5,77,mainplot,short,NA,18,39,2932,"[""<img src=\""jspsych/stimuli/charles1C5.png\"" width=\""480\"" height=\""270\""> &nbsp <img src=\""jspsych/stimuli/charles2A5.png\"" width=\""480\"" height=\""270\"">""]",across,146,-21,21
310,32,Sandra,1,B,2,10,Sandra,2,B,7,119,coherent,long,NA,91,108,1915.5,"[""<img src=\""jspsych/stimuli/sandra1B2.png\"" width=\""480\"" height=\""270\""> &nbsp <img src=\""jspsych/stimuli/sandra2B7.png\"" width=\""480\"" height=\""270\"">""]",across,147,-17,17
310,32,Beatrice,1,B,4,28,Beatrice,2,A,2,130,unrelated,long,NA,94,101,2732.1,"[""<img src=\""jspsych/stimuli/beatrice1B4.png\"" width=\""480\"" height=\""270\""> &nbsp <img src=\""jspsych/stimuli/beatrice2A2.png\"" width=\""480\"" height=\""270\"">""]",across,148,-7,7
310,32,Charles,1,D,2,50,Charles,2,B,2,90,mainplot,short,NA,21,39,5437.2,"[""<img src=\""jspsych/stimuli/charles1D2.png\"" width=\""480\"" height=\""270\""> &nbsp <img src=\""jspsych/stimuli/charles2B2.png\"" width=\""480\"" height=\""270\"">""]",across,149,-18,18
310,32,Johnny,1,B,6,46,Johnny,2,B,6,86,coherent,short,NA,106,39,4253.2,"[""<img src=\""jspsych/stimuli/johnny1B6.png\"" width=\""480\"" height=\""270\""> &nbsp <img src=\""jspsych/stimuli/johnny2B6.png\"" width=\""480\"" height=\""270\"">""]",across,150,67,67
310,32,Johnny,1,B,2,42,Johnny,2,B,7,87,coherent,short,NA,99,44,2316.4,"[""<img src=\""jspsych/stimuli/johnny1B2.png\"" width=\""480\"" height=\""270\""> &nbsp <img src=\""jspsych/stimuli/johnny2B7.png\"" width=\""480\"" height=\""270\"">""]",across,151,55,55
310,32,Beatrice,1,B,3,27,Beatrice,2,A,3,131,unrelated,long,NA,88,103,1789.1,"[""<img src=\""jspsych/stimuli/beatrice1B3.png\"" width=\""480\"" height=\""270\""> &nbsp <img src=\""jspsych/stimuli/beatrice2A3.png\"" width=\""480\"" height=\""270\"">""]",across,152,-15,15
310,32,Charles,1,C,1,33,Charles,2,D,1,121,mainplot,mainplot,NA,59,87,3467.4,"[""<img src=\""jspsych/stimuli/charles1C1.png\"" width=\""480\"" height=\""270\""> &nbsp <img src=\""jspsych/stimuli/charles2D1.png\"" width=\""480\"" height=\""270\"">""]",random,153,-28,28
310,32,Melvin,1,B,5,61,Melvin,2,A,3,99,unrelated,short,NA,101,37,2899.7,"[""<img src=\""jspsych/stimuli/melvin1B5.png\"" width=\""480\"" height=\""270\""> &nbsp <img src=\""jspsych/stimuli/melvin2A3.png\"" width=\""480\"" height=\""270\"">""]",across,154,64,64
310,32,Charles,1,D,1,49,Melvin,1,B,1,57,unrelated,short,NA,38,7,4411.8,"[""<img src=\""jspsych/stimuli/charles1D1.png\"" width=\""480\"" height=\""270\""> &nbsp <img src=\""jspsych/stimuli/melvin1B1.png\"" width=\""480\"" height=\""270\"">""]",adjacent,155,31,31
310,32,Charles,1,D,4,52,Charles,2,B,4,92,mainplot,short,NA,33,39,2685.5,"[""<img src=\""jspsych/stimuli/charles1D4.png\"" width=\""480\"" height=\""270\""> &nbsp <img src=\""jspsych/stimuli/charles2B4.png\"" width=\""480\"" height=\""270\"">""]",across,156,-6,6
310,32,Beatrice,1,B,4,28,Beatrice,2,A,4,132,unrelated,long,NA,93,103,3645.7,"[""<img src=\""jspsych/stimuli/beatrice1B4.png\"" width=\""480\"" height=\""270\""> &nbsp <img src=\""jspsych/stimuli/beatrice2A4.png\"" width=\""480\"" height=\""270\"">""]",across,157,-10,10
310,32,Charles,2,E,1,137,Charles,1,E,6,142,mainplot,mainplot,NA,43,4,3731.4,"[""<img src=\""jspsych/stimuli/charles2E1.png\"" width=\""480\"" height=\""270\""> &nbsp <img src=\""jspsych/stimuli/charles1E6.png\"" width=\""480\"" height=\""270\"">""]",within,158,39,39
310,32,Beatrice,1,B,8,32,Beatrice,2,A,3,131,unrelated,long,NA,101,98,1651.1,"[""<img src=\""jspsych/stimuli/beatrice1B8.png\"" width=\""480\"" height=\""270\""> &nbsp <img src=\""jspsych/stimuli/beatrice2A3.png\"" width=\""480\"" height=\""270\"">""]",across,159,3,3
310,32,Charles,1,B,8,24,Charles,2,B,8,96,mainplot,mainplot,NA,86,71,3796.6,"[""<img src=\""jspsych/stimuli/charles1B8.png\"" width=\""480\"" height=\""270\""> &nbsp <img src=\""jspsych/stimuli/charles2B8.png\"" width=\""480\"" height=\""270\"">""]",random,160,15,15
310,32,Charles,1,C,4,36,Charles,2,A,4,76,mainplot,short,NA,31,39,2587.7,"[""<img src=\""jspsych/stimuli/charles1C4.png\"" width=\""480\"" height=\""270\""> &nbsp <img src=\""jspsych/stimuli/charles2A4.png\"" width=\""480\"" height=\""270\"">""]",across,161,-8,8
310,32,Charles,1,C,7,39,Charles,2,A,7,79,mainplot,short,NA,20,39,5291.8,"[""<img src=\""jspsych/stimuli/charles1C7.png\"" width=\""480\"" height=\""270\""> &nbsp <img src=\""jspsych/stimuli/charles2A7.png\"" width=\""480\"" height=\""270\"">""]",across,162,-19,19
310,32,Charles,2,D,5,125,Charles,2,E,2,138,mainplot,mainplot,NA,0,12,3043.7,"[""<img src=\""jspsych/stimuli/charles2D5.png\"" width=\""480\"" height=\""270\""> &nbsp <img src=\""jspsych/stimuli/charles2E2.png\"" width=\""480\"" height=\""270\"">""]",random,163,-12,12
310,32,Sandra,1,B,6,14,Sandra,2,B,4,116,coherent,long,NA,95,101,3276.4,"[""<img src=\""jspsych/stimuli/sandra1B6.png\"" width=\""480\"" height=\""270\""> &nbsp <img src=\""jspsych/stimuli/sandra2B4.png\"" width=\""480\"" height=\""270\"">""]",across,164,-6,6
310,32,Charles,1,D,3,51,Charles,1,D,7,55,mainplot,mainplot,NA,3,3,4133,"[""<img src=\""jspsych/stimuli/charles1D3.png\"" width=\""480\"" height=\""270\""> &nbsp <img src=\""jspsych/stimuli/charles1D7.png\"" width=\""480\"" height=\""270\"">""]",within,165,0,0
310,32,Charles,1,D,5,53,Charles,2,D,8,128,mainplot,mainplot,NA,63,74,2795.4,"[""<img src=\""jspsych/stimuli/charles1D5.png\"" width=\""480\"" height=\""270\""> &nbsp <img src=\""jspsych/stimuli/charles2D8.png\"" width=\""480\"" height=\""270\"">""]",random,166,-11,11
310,32,Charles,1,A,6,6,Charles,2,C,6,110,mainplot,long,NA,118,103,3883.8,"[""<img src=\""jspsych/stimuli/charles1A6.png\"" width=\""480\"" height=\""270\""> &nbsp <img src=\""jspsych/stimuli/charles2C6.png\"" width=\""480\"" height=\""270\"">""]",across,167,15,15
310,32,Charles,2,D,3,123,Charles,2,D,6,126,mainplot,mainplot,NA,0,2,2538.8,"[""<img src=\""jspsych/stimuli/charles2D3.png\"" width=\""480\"" height=\""270\""> &nbsp <img src=\""jspsych/stimuli/charles2D6.png\"" width=\""480\"" height=\""270\"">""]",within,168,-2,2
310,32,Beatrice,1,B,3,27,Beatrice,2,A,4,132,unrelated,long,NA,98,104,4218.1,"[""<img src=\""jspsych/stimuli/beatrice1B3.png\"" width=\""480\"" height=\""270\""> &nbsp <img src=\""jspsych/stimuli/beatrice2A4.png\"" width=\""480\"" height=\""270\"">""]",across,169,-6,6
310,32,Charles,1,E,6,70,Charles,2,A,7,79,mainplot,mainplot,NA,29,8,4564.5,"[""<img src=\""jspsych/stimuli/charles1E6.png\"" width=\""480\"" height=\""270\""> &nbsp <img src=\""jspsych/stimuli/charles2A7.png\"" width=\""480\"" height=\""270\"">""]",adjacent,170,21,21
310,32,Beatrice,2,A,1,129,Beatrice,2,A,6,134,unrelated,long,NA,1,4,3764.4,"[""<img src=\""jspsych/stimuli/beatrice2A1.png\"" width=\""480\"" height=\""270\""> &nbsp <img src=\""jspsych/stimuli/beatrice2A6.png\"" width=\""480\"" height=\""270\"">""]",within,171,-3,3
310,32,Johnny,1,B,7,47,Johnny,2,B,7,87,coherent,short,NA,92,39,6651.6,"[""<img src=\""jspsych/stimuli/johnny1B7.png\"" width=\""480\"" height=\""270\""> &nbsp <img src=\""jspsych/stimuli/johnny2B7.png\"" width=\""480\"" height=\""270\"">""]",across,172,53,53
310,32,Melvin,1,B,8,64,Melvin,2,A,8,104,unrelated,short,NA,97,39,2980.1,"[""<img src=\""jspsych/stimuli/melvin1B8.png\"" width=\""480\"" height=\""270\""> &nbsp <img src=\""jspsych/stimuli/melvin2A8.png\"" width=\""480\"" height=\""270\"">""]",across,173,58,58
310,32,Charles,1,C,6,38,Charles,2,D,7,127,mainplot,mainplot,NA,35,88,3940.1,"[""<img src=\""jspsych/stimuli/charles1C6.png\"" width=\""480\"" height=\""270\""> &nbsp <img src=\""jspsych/stimuli/charles2D7.png\"" width=\""480\"" height=\""270\"">""]",random,174,-53,53
310,32,Charles,1,D,7,55,Charles,2,B,7,95,mainplot,short,NA,47,39,2444.1,"[""<img src=\""jspsych/stimuli/charles1D7.png\"" width=\""480\"" height=\""270\""> &nbsp <img src=\""jspsych/stimuli/charles2B7.png\"" width=\""480\"" height=\""270\"">""]",across,175,8,8
310,32,Melvin,1,B,5,61,Melvin,2,A,7,103,unrelated,short,NA,97,41,2876.4,"[""<img src=\""jspsych/stimuli/melvin1B5.png\"" width=\""480\"" height=\""270\""> &nbsp <img src=\""jspsych/stimuli/melvin2A7.png\"" width=\""480\"" height=\""270\"">""]",across,176,56,56
310,32,Sandra,1,B,5,13,Sandra,2,B,2,114,coherent,long,NA,102,100,2027.3,"[""<img src=\""jspsych/stimuli/sandra1B5.png\"" width=\""480\"" height=\""270\""> &nbsp <img src=\""jspsych/stimuli/sandra2B2.png\"" width=\""480\"" height=\""270\"">""]",across,177,2,2
310,32,Beatrice,1,B,7,31,Beatrice,2,A,7,135,unrelated,long,NA,130,103,4179.4,"[""<img src=\""jspsych/stimuli/beatrice1B7.png\"" width=\""480\"" height=\""270\""> &nbsp <img src=\""jspsych/stimuli/beatrice2A7.png\"" width=\""480\"" height=\""270\"">""]",across,178,27,27
310,32,Beatrice,1,B,1,25,Charles,1,C,1,33,unrelated,long,NA,25,7,3716.5,"[""<img src=\""jspsych/stimuli/beatrice1B1.png\"" width=\""480\"" height=\""270\""> &nbsp <img src=\""jspsych/stimuli/charles1C1.png\"" width=\""480\"" height=\""270\"">""]",adjacent,179,18,18
310,32,Beatrice,1,B,8,32,Beatrice,2,A,8,136,unrelated,long,NA,100,103,1452.7,"[""<img src=\""jspsych/stimuli/beatrice1B8.png\"" width=\""480\"" height=\""270\""> &nbsp <img src=\""jspsych/stimuli/beatrice2A8.png\"" width=\""480\"" height=\""270\"">""]",across,180,-3,3
310,32,Beatrice,1,B,8,32,Beatrice,2,A,4,132,unrelated,long,NA,101,99,1235.9,"[""<img src=\""jspsych/stimuli/beatrice1B8.png\"" width=\""480\"" height=\""270\""> &nbsp <img src=\""jspsych/stimuli/beatrice2A4.png\"" width=\""480\"" height=\""270\"">""]",across,181,2,2
310,32,Johnny,1,B,7,47,Johnny,2,B,5,85,coherent,short,NA,102,37,1483.1,"[""<img src=\""jspsych/stimuli/johnny1B7.png\"" width=\""480\"" height=\""270\""> &nbsp <img src=\""jspsych/stimuli/johnny2B5.png\"" width=\""480\"" height=\""270\"">""]",across,182,65,65
310,32,Charles,2,C,3,107,Sandra,2,B,3,115,coherent,long,NA,6,7,5604.2,"[""<img src=\""jspsych/stimuli/charles2C3.png\"" width=\""480\"" height=\""270\""> &nbsp <img src=\""jspsych/stimuli/sandra2B3.png\"" width=\""480\"" height=\""270\"">""]",adjacent,183,-1,1
310,32,Charles,1,C,8,40,Johnny,1,B,8,48,coherent,short,NA,61,7,6212,"[""<img src=\""jspsych/stimuli/charles1C8.png\"" width=\""480\"" height=\""270\""> &nbsp <img src=\""jspsych/stimuli/johnny1B8.png\"" width=\""480\"" height=\""270\"">""]",adjacent,184,54,54
310,32,Johnny,1,B,3,43,Johnny,1,B,8,48,coherent,short,NA,0,4,2267.4,"[""<img src=\""jspsych/stimuli/johnny1B3.png\"" width=\""480\"" height=\""270\""> &nbsp <img src=\""jspsych/stimuli/johnny1B8.png\"" width=\""480\"" height=\""270\"">""]",within,185,-4,4
310,32,Charles,1,A,8,8,Sandra,1,B,8,16,coherent,long,NA,65,7,3723.7,"[""<img src=\""jspsych/stimuli/charles1A8.png\"" width=\""480\"" height=\""270\""> &nbsp <img src=\""jspsych/stimuli/sandra1B8.png\"" width=\""480\"" height=\""270\"">""]",adjacent,186,58,58
310,32,Melvin,1,B,5,61,Melvin,2,A,5,101,unrelated,short,NA,101,39,2628.5,"[""<img src=\""jspsych/stimuli/melvin1B5.png\"" width=\""480\"" height=\""270\""> &nbsp <img src=\""jspsych/stimuli/melvin2A5.png\"" width=\""480\"" height=\""270\"">""]",across,187,62,62
310,32,Charles,2,B,6,94,Melvin,2,A,6,102,unrelated,short,NA,3,7,4739.2,"[""<img src=\""jspsych/stimuli/charles2B6.png\"" width=\""480\"" height=\""270\""> &nbsp <img src=\""jspsych/stimuli/melvin2A6.png\"" width=\""480\"" height=\""270\"">""]",adjacent,188,-4,4
310,32,Beatrice,1,B,2,26,Beatrice,2,A,2,130,unrelated,long,NA,94,103,2396.6,"[""<img src=\""jspsych/stimuli/beatrice1B2.png\"" width=\""480\"" height=\""270\""> &nbsp <img src=\""jspsych/stimuli/beatrice2A2.png\"" width=\""480\"" height=\""270\"">""]",across,189,-9,9
310,32,Charles,1,B,5,21,Charles,2,D,5,125,mainplot,long,NA,79,103,4995.6,"[""<img src=\""jspsych/stimuli/charles1B5.png\"" width=\""480\"" height=\""270\""> &nbsp <img src=\""jspsych/stimuli/charles2D5.png\"" width=\""480\"" height=\""270\"">""]",across,190,-24,24
311,7,Charles,1,C,4,36,Charles,2,A,4,76,mainplot,short,NA,52,39,8117.4,"[""<img src=\""jspsych/stimuli/charles1C4.png\"" width=\""480\"" height=\""270\""> &nbsp <img src=\""jspsych/stimuli/charles2A4.png\"" width=\""480\"" height=\""270\"">""]",across,24,13,13
311,7,Sandra,1,A,7,63,Sandra,2,A,5,101,coherent,short,NA,0,37,5027.5,"[""<img src=\""jspsych/stimuli/sandra1A7.png\"" width=\""480\"" height=\""270\""> &nbsp <img src=\""jspsych/stimuli/sandra2A5.png\"" width=\""480\"" height=\""270\"">""]",across,25,-37,37
311,7,Charles,2,C,3,107,Melvin,2,A,3,115,coherent,long,NA,25,7,7236.3,"[""<img src=\""jspsych/stimuli/charles2C3.png\"" width=\""480\"" height=\""270\""> &nbsp <img src=\""jspsych/stimuli/melvin2A3.png\"" width=\""480\"" height=\""270\"">""]",adjacent,26,18,18
311,7,Johnny,1,A,2,26,Johnny,2,B,5,133,unrelated,long,NA,0,106,8997,"[""<img src=\""jspsych/stimuli/johnny1A2.png\"" width=\""480\"" height=\""270\""> &nbsp <img src=\""jspsych/stimuli/johnny2B5.png\"" width=\""480\"" height=\""270\"">""]",across,27,-106,106
311,7,Melvin,1,A,5,13,Melvin,2,A,5,117,coherent,long,NA,91,103,7027.8,"[""<img src=\""jspsych/stimuli/melvin1A5.png\"" width=\""480\"" height=\""270\""> &nbsp <img src=\""jspsych/stimuli/melvin2A5.png\"" width=\""480\"" height=\""270\"">""]",across,28,-12,12
311,7,Sandra,1,A,5,61,Sandra,2,A,5,101,coherent,short,NA,0,39,3658.8,"[""<img src=\""jspsych/stimuli/sandra1A5.png\"" width=\""480\"" height=\""270\""> &nbsp <img src=\""jspsych/stimuli/sandra2A5.png\"" width=\""480\"" height=\""270\"">""]",across,29,-39,39
311,7,Sandra,1,A,2,58,Sandra,2,A,5,101,coherent,short,NA,90,42,6667.7,"[""<img src=\""jspsych/stimuli/sandra1A2.png\"" width=\""480\"" height=\""270\""> &nbsp <img src=\""jspsych/stimuli/sandra2A5.png\"" width=\""480\"" height=\""270\"">""]",across,30,48,48
311,7,Melvin,2,A,8,120,Charles,2,D,8,128,coherent,long,NA,50,7,8059.2,"[""<img src=\""jspsych/stimuli/melvin2A8.png\"" width=\""480\"" height=\""270\""> &nbsp <img src=\""jspsych/stimuli/charles2D8.png\"" width=\""480\"" height=\""270\"">""]",adjacent,31,43,43
311,7,Beatrice,1,A,6,46,Beatrice,2,B,4,84,unrelated,short,NA,92,37,7983.7,"[""<img src=\""jspsych/stimuli/beatrice1A6.png\"" width=\""480\"" height=\""270\""> &nbsp <img src=\""jspsych/stimuli/beatrice2B4.png\"" width=\""480\"" height=\""270\"">""]",across,33,55,55
311,7,Charles,1,A,2,2,Charles,2,C,2,106,mainplot,long,NA,101,103,5380.2,"[""<img src=\""jspsych/stimuli/charles1A2.png\"" width=\""480\"" height=\""270\""> &nbsp <img src=\""jspsych/stimuli/charles2C2.png\"" width=\""480\"" height=\""270\"">""]",across,34,-2,2
311,7,Charles,1,E,3,67,Charles,2,A,4,76,mainplot,mainplot,NA,101,8,5356.9,"[""<img src=\""jspsych/stimuli/charles1E3.png\"" width=\""480\"" height=\""270\""> &nbsp <img src=\""jspsych/stimuli/charles2A4.png\"" width=\""480\"" height=\""270\"">""]",adjacent,35,93,93
311,7,Sandra,1,A,1,57,Sandra,1,A,6,62,coherent,short,NA,104,4,6235.7,"[""<img src=\""jspsych/stimuli/sandra1A1.png\"" width=\""480\"" height=\""270\""> &nbsp <img src=\""jspsych/stimuli/sandra1A6.png\"" width=\""480\"" height=\""270\"">""]",within,36,100,100
311,7,Charles,1,D,6,54,Charles,2,D,2,122,mainplot,mainplot,NA,28,67,7900.1,"[""<img src=\""jspsych/stimuli/charles1D6.png\"" width=\""480\"" height=\""270\""> &nbsp <img src=\""jspsych/stimuli/charles2D2.png\"" width=\""480\"" height=\""270\"">""]",random,37,-39,39
311,7,Sandra,1,A,2,58,Sandra,2,A,8,104,coherent,short,NA,37,45,6979.5,"[""<img src=\""jspsych/stimuli/sandra1A2.png\"" width=\""480\"" height=\""270\""> &nbsp <img src=\""jspsych/stimuli/sandra2A8.png\"" width=\""480\"" height=\""270\"">""]",across,38,-8,8
311,7,Charles,1,C,3,35,Charles,1,D,8,56,mainplot,mainplot,NA,0,20,5563.3,"[""<img src=\""jspsych/stimuli/charles1C3.png\"" width=\""480\"" height=\""270\""> &nbsp <img src=\""jspsych/stimuli/charles1D8.png\"" width=\""480\"" height=\""270\"">""]",random,39,-20,20
311,7,Sandra,1,A,4,60,Sandra,2,A,8,104,coherent,short,NA,82,43,5943.2,"[""<img src=\""jspsych/stimuli/sandra1A4.png\"" width=\""480\"" height=\""270\""> &nbsp <img src=\""jspsych/stimuli/sandra2A8.png\"" width=\""480\"" height=\""270\"">""]",across,41,39,39
311,7,Johnny,1,A,5,29,Johnny,2,B,5,133,unrelated,long,NA,4,103,5803.9,"[""<img src=\""jspsych/stimuli/johnny1A5.png\"" width=\""480\"" height=\""270\""> &nbsp <img src=\""jspsych/stimuli/johnny2B5.png\"" width=\""480\"" height=\""270\"">""]",across,42,-99,99
311,7,Sandra,1,A,7,63,Sandra,2,A,2,98,coherent,short,NA,13,34,9691.8,"[""<img src=\""jspsych/stimuli/sandra1A7.png\"" width=\""480\"" height=\""270\""> &nbsp <img src=\""jspsych/stimuli/sandra2A2.png\"" width=\""480\"" height=\""270\"">""]",across,43,-21,21
311,7,Charles,1,E,8,72,Charles,2,C,8,112,mainplot,short,NA,13,39,6254.9,"[""<img src=\""jspsych/stimuli/charles1E8.png\"" width=\""480\"" height=\""270\""> &nbsp <img src=\""jspsych/stimuli/charles2C8.png\"" width=\""480\"" height=\""270\"">""]",across,44,-26,26
311,7,Melvin,1,A,4,12,Melvin,2,A,6,118,coherent,long,NA,48,105,6209.3,"[""<img src=\""jspsych/stimuli/melvin1A4.png\"" width=\""480\"" height=\""270\""> &nbsp <img src=\""jspsych/stimuli/melvin2A6.png\"" width=\""480\"" height=\""270\"">""]",across,47,-57,57
311,7,Melvin,1,A,1,9,Melvin,2,A,4,116,coherent,long,NA,0,106,4684,"[""<img src=\""jspsych/stimuli/melvin1A1.png\"" width=\""480\"" height=\""270\""> &nbsp <img src=\""jspsych/stimuli/melvin2A4.png\"" width=\""480\"" height=\""270\"">""]",across,48,-106,106
311,7,Beatrice,1,A,5,45,Beatrice,2,B,7,87,unrelated,short,NA,25,41,5635.6,"[""<img src=\""jspsych/stimuli/beatrice1A5.png\"" width=\""480\"" height=\""270\""> &nbsp <img src=\""jspsych/stimuli/beatrice2B7.png\"" width=\""480\"" height=\""270\"">""]",across,49,-16,16
311,7,Beatrice,1,A,4,44,Beatrice,2,B,6,86,unrelated,short,NA,85,41,8436,"[""<img src=\""jspsych/stimuli/beatrice1A4.png\"" width=\""480\"" height=\""270\""> &nbsp <img src=\""jspsych/stimuli/beatrice2B6.png\"" width=\""480\"" height=\""270\"">""]",across,50,44,44
311,7,Beatrice,1,A,1,41,Beatrice,2,B,6,86,unrelated,short,NA,7,44,3059.8,"[""<img src=\""jspsych/stimuli/beatrice1A1.png\"" width=\""480\"" height=\""270\""> &nbsp <img src=\""jspsych/stimuli/beatrice2B6.png\"" width=\""480\"" height=\""270\"">""]",across,51,-37,37
311,7,Johnny,1,A,7,31,Johnny,2,B,2,130,unrelated,long,NA,18,98,7284.2,"[""<img src=\""jspsych/stimuli/johnny1A7.png\"" width=\""480\"" height=\""270\""> &nbsp <img src=\""jspsych/stimuli/johnny2B2.png\"" width=\""480\"" height=\""270\"">""]",across,52,-80,80
311,7,Johnny,1,A,2,26,Johnny,2,B,2,130,unrelated,long,NA,0,103,3619.7,"[""<img src=\""jspsych/stimuli/johnny1A2.png\"" width=\""480\"" height=\""270\""> &nbsp <img src=\""jspsych/stimuli/johnny2B2.png\"" width=\""480\"" height=\""270\"">""]",across,53,-103,103
311,7,Charles,2,A,8,80,Beatrice,2,B,8,88,unrelated,short,NA,36,7,5228.2,"[""<img src=\""jspsych/stimuli/charles2A8.png\"" width=\""480\"" height=\""270\""> &nbsp <img src=\""jspsych/stimuli/beatrice2B8.png\"" width=\""480\"" height=\""270\"">""]",adjacent,54,29,29
311,7,Sandra,1,A,5,61,Sandra,2,A,7,103,coherent,short,NA,22,41,4419.2,"[""<img src=\""jspsych/stimuli/sandra1A5.png\"" width=\""480\"" height=\""270\""> &nbsp <img src=\""jspsych/stimuli/sandra2A7.png\"" width=\""480\"" height=\""270\"">""]",across,55,-19,19
311,7,Charles,2,D,6,126,Johnny,2,B,6,134,unrelated,long,NA,82,7,6307.1,"[""<img src=\""jspsych/stimuli/charles2D6.png\"" width=\""480\"" height=\""270\""> &nbsp <img src=\""jspsych/stimuli/johnny2B6.png\"" width=\""480\"" height=\""270\"">""]",adjacent,56,75,75
311,7,Beatrice,1,A,6,46,Beatrice,2,B,1,81,unrelated,short,NA,22,34,5908.2,"[""<img src=\""jspsych/stimuli/beatrice1A6.png\"" width=\""480\"" height=\""270\""> &nbsp <img src=\""jspsych/stimuli/beatrice2B1.png\"" width=\""480\"" height=\""270\"">""]",across,57,-12,12
311,7,Charles,1,D,3,51,Charles,1,D,7,55,mainplot,mainplot,NA,0,3,2949.2,"[""<img src=\""jspsych/stimuli/charles1D3.png\"" width=\""480\"" height=\""270\""> &nbsp <img src=\""jspsych/stimuli/charles1D7.png\"" width=\""480\"" height=\""270\"">""]",within,58,-3,3
311,7,Charles,1,A,3,3,Melvin,1,A,3,11,coherent,long,NA,98,7,9259.8,"[""<img src=\""jspsych/stimuli/charles1A3.png\"" width=\""480\"" height=\""270\""> &nbsp <img src=\""jspsych/stimuli/melvin1A3.png\"" width=\""480\"" height=\""270\"">""]",adjacent,59,91,91
311,7,Beatrice,1,A,5,45,Beatrice,2,B,5,85,unrelated,short,NA,99,39,9423.2,"[""<img src=\""jspsych/stimuli/beatrice1A5.png\"" width=\""480\"" height=\""270\""> &nbsp <img src=\""jspsych/stimuli/beatrice2B5.png\"" width=\""480\"" height=\""270\"">""]",across,60,60,60
311,7,Charles,1,B,2,18,Charles,2,D,2,122,mainplot,long,NA,0,103,4402.5,"[""<img src=\""jspsych/stimuli/charles1B2.png\"" width=\""480\"" height=\""270\""> &nbsp <img src=\""jspsych/stimuli/charles2D2.png\"" width=\""480\"" height=\""270\"">""]",across,61,-103,103
311,7,Melvin,1,A,6,14,Melvin,2,A,4,116,coherent,long,NA,19,101,7108.9,"[""<img src=\""jspsych/stimuli/melvin1A6.png\"" width=\""480\"" height=\""270\""> &nbsp <img src=\""jspsych/stimuli/melvin2A4.png\"" width=\""480\"" height=\""270\"">""]",across,62,-82,82
311,7,Beatrice,2,B,3,83,Beatrice,2,B,8,88,unrelated,short,NA,7,4,3652.4,"[""<img src=\""jspsych/stimuli/beatrice2B3.png\"" width=\""480\"" height=\""270\""> &nbsp <img src=\""jspsych/stimuli/beatrice2B8.png\"" width=\""480\"" height=\""270\"">""]",within,63,3,3
311,7,Melvin,1,A,7,15,Melvin,2,A,7,119,coherent,long,NA,0,103,3964.4,"[""<img src=\""jspsych/stimuli/melvin1A7.png\"" width=\""480\"" height=\""270\""> &nbsp <img src=\""jspsych/stimuli/melvin2A7.png\"" width=\""480\"" height=\""270\"">""]",across,64,-103,103
311,7,Melvin,1,A,2,10,Melvin,2,A,2,114,coherent,long,NA,106,103,6179.3,"[""<img src=\""jspsych/stimuli/melvin1A2.png\"" width=\""480\"" height=\""270\""> &nbsp <img src=\""jspsych/stimuli/melvin2A2.png\"" width=\""480\"" height=\""270\"">""]",across,65,3,3
311,7,Charles,1,D,2,50,Charles,2,B,2,90,mainplot,short,NA,36,39,4315.2,"[""<img src=\""jspsych/stimuli/charles1D2.png\"" width=\""480\"" height=\""270\""> &nbsp <img src=\""jspsych/stimuli/charles2B2.png\"" width=\""480\"" height=\""270\"">""]",across,66,-3,3
311,7,Johnny,1,A,8,32,Johnny,2,B,4,132,unrelated,long,NA,74,99,6332,"[""<img src=\""jspsych/stimuli/johnny1A8.png\"" width=\""480\"" height=\""270\""> &nbsp <img src=\""jspsych/stimuli/johnny2B4.png\"" width=\""480\"" height=\""270\"">""]",across,67,-25,25
311,7,Charles,1,C,8,40,Beatrice,1,A,8,48,unrelated,short,NA,54,7,6012.2,"[""<img src=\""jspsych/stimuli/charles1C8.png\"" width=\""480\"" height=\""270\""> &nbsp <img src=\""jspsych/stimuli/beatrice1A8.png\"" width=\""480\"" height=\""270\"">""]",adjacent,68,47,47
311,7,Charles,1,E,6,70,Charles,2,A,7,79,mainplot,mainplot,NA,19,8,5963.7,"[""<img src=\""jspsych/stimuli/charles1E6.png\"" width=\""480\"" height=\""270\""> &nbsp <img src=\""jspsych/stimuli/charles2A7.png\"" width=\""480\"" height=\""270\"">""]",adjacent,69,11,11
311,7,Charles,1,E,4,68,Charles,2,C,4,108,mainplot,short,NA,27,39,9560.1,"[""<img src=\""jspsych/stimuli/charles1E4.png\"" width=\""480\"" height=\""270\""> &nbsp <img src=\""jspsych/stimuli/charles2C4.png\"" width=\""480\"" height=\""270\"">""]",across,70,-12,12
311,7,Charles,1,C,3,35,Beatrice,1,A,3,43,unrelated,short,NA,95,7,3856.2,"[""<img src=\""jspsych/stimuli/charles1C3.png\"" width=\""480\"" height=\""270\""> &nbsp <img src=\""jspsych/stimuli/beatrice1A3.png\"" width=\""480\"" height=\""270\"">""]",adjacent,71,88,88
311,7,Johnny,1,A,8,32,Johnny,2,B,3,131,unrelated,long,NA,85,98,5628.2,"[""<img src=\""jspsych/stimuli/johnny1A8.png\"" width=\""480\"" height=\""270\""> &nbsp <img src=\""jspsych/stimuli/johnny2B3.png\"" width=\""480\"" height=\""270\"">""]",across,72,-13,13
311,7,Melvin,1,A,1,9,Melvin,2,A,6,118,coherent,long,NA,0,108,4924.2,"[""<img src=\""jspsych/stimuli/melvin1A1.png\"" width=\""480\"" height=\""270\""> &nbsp <img src=\""jspsych/stimuli/melvin2A6.png\"" width=\""480\"" height=\""270\"">""]",across,73,-108,108
311,7,Johnny,1,A,1,25,Charles,1,C,1,33,unrelated,long,NA,8,7,5564.5,"[""<img src=\""jspsych/stimuli/johnny1A1.png\"" width=\""480\"" height=\""270\""> &nbsp <img src=\""jspsych/stimuli/charles1C1.png\"" width=\""480\"" height=\""270\"">""]",adjacent,74,1,1
311,7,Charles,1,B,7,23,Charles,2,D,7,127,mainplot,long,NA,14,103,7564,"[""<img src=\""jspsych/stimuli/charles1B7.png\"" width=\""480\"" height=\""270\""> &nbsp <img src=\""jspsych/stimuli/charles2D7.png\"" width=\""480\"" height=\""270\"">""]",across,75,-89,89
311,7,Charles,1,B,3,19,Charles,1,D,1,49,mainplot,mainplot,NA,51,29,8243.8,"[""<img src=\""jspsych/stimuli/charles1B3.png\"" width=\""480\"" height=\""270\""> &nbsp <img src=\""jspsych/stimuli/charles1D1.png\"" width=\""480\"" height=\""270\"">""]",random,76,22,22
